* Measurement data measured by REW V5.30 beta 3
* Source: Microphone (4- USB Audio Device), MICROPHONE (Master Volume), R, volume: 0.250
* Format: 256k Log Swept Sine, 1 sweep at -12.0 dBFS with no timing reference
* Dated: 29-Nov-2023 17:12:07
* REW Settings:
*  C-weighting compensation: Off
*  Target level: 75.0 dB
* Note: 
* Measurement: 1More Q30 Pistonbuds Pro
* Smoothing: 1/12 octave
* Frequency Step: 1/48 octave
* Start Frequency: 20.300 Hz
*
* Freq(Hz)	SPL(dB)	Phase(degrees)
20.299999	74.876	96.4074
20.600000	74.917	95.2400
20.900000	74.964	93.7349
21.200001	75.011	92.0577
21.400000	75.042	90.8757
21.799999	75.111	88.4015
22.000000	75.150	87.1300
22.400000	75.240	84.5824
22.700001	75.319	82.7232
23.000000	75.405	80.9522
23.299999	75.496	79.2941
23.600000	75.586	77.7567
24.000000	75.697	75.8818
24.299999	75.768	74.5846
24.700001	75.842	72.9591
25.000000	75.882	71.7907
25.400000	75.918	70.2651
25.799999	75.942	68.7487
26.200001	75.963	67.2279
26.500000	75.980	66.0881
26.900000	76.006	64.5884
27.200001	76.028	63.4958
27.600000	76.058	62.1045
28.000000	76.087	60.8008
28.500000	76.118	59.2854
29.000000	76.144	57.8586
29.500000	76.161	56.4782
30.000000	76.174	55.1274
30.400000	76.182	54.0738
30.700001	76.189	53.3051
31.100000	76.198	52.3131
31.500000	76.209	51.3587
32.000000	76.220	50.2103
32.500000	76.229	49.0986
33.000000	76.233	48.0127
33.500000	76.236	46.9483
34.000000	76.239	45.9099
34.500000	76.244	44.9082
35.000000	76.252	43.9534
35.500000	76.262	43.0462
36.000000	76.273	42.1760
36.500000	76.282	41.3277
37.000000	76.289	40.4899
37.500000	76.297	39.6593
38.200001	76.309	38.5152
38.700001	76.321	37.7209
39.500000	76.344	36.5028
40.000000	76.360	35.7689
40.599998	76.379	34.9006
41.200001	76.396	34.0384
41.799999	76.411	33.1874
42.500000	76.429	32.2155
43.099998	76.445	31.3966
43.700001	76.461	30.5864
44.400002	76.480	29.6506
45.000000	76.495	28.8544
45.500000	76.508	28.1967
46.200001	76.525	27.2930
46.799999	76.538	26.5324
47.500000	76.550	25.6368
48.200001	76.554	24.7151
48.700001	76.553	24.0502
49.400002	76.555	23.1263
50.000000	76.563	22.3373
50.799999	76.580	21.2759
51.500000	76.591	20.3487
52.200001	76.596	19.4352
53.000000	76.594	18.4001
53.799999	76.588	17.3697
54.500000	76.582	16.4769
55.200001	76.577	15.5924
56.000000	76.570	14.5893
57.000000	76.556	13.3478
58.000000	76.533	12.1063
59.000000	76.501	10.8563
60.000000	76.466	9.6126
60.799999	76.436	8.6324
61.500000	76.407	7.7892
62.200001	76.377	6.9590
63.000000	76.339	6.0235
64.000000	76.287	4.8753
65.000000	76.230	3.7583
66.000000	76.171	2.6735
67.000000	76.111	1.6172
68.000000	76.048	0.5879
69.000000	75.983	-0.4174
70.000000	75.913	-1.4034
71.000000	75.838	-2.3672
72.000000	75.761	-3.2988
73.000000	75.681	-4.1942
74.000000	75.600	-5.0534
75.000000	75.516	-5.8744
76.199997	75.411	-6.8164
77.500000	75.292	-7.8069
78.800003	75.169	-8.7638
80.000000	75.054	-9.6034
81.199997	74.935	-10.4077
82.500000	74.807	-11.2497
83.800003	74.681	-12.0601
85.000000	74.563	-12.7553
86.199997	74.444	-13.3945
87.500000	74.316	-14.0346
88.500000	74.219	-14.4957
90.000000	74.077	-15.1486
91.199997	73.964	-15.6427
92.500000	73.843	-16.1527
93.800003	73.723	-16.6337
95.000000	73.612	-17.0462
96.199997	73.502	-17.4182
97.500000	73.384	-17.7753
98.800003	73.266	-18.1087
100.000000	73.156	-18.4173
101.500000	73.016	-18.7960
103.000000	72.877	-19.1486
104.400002	72.749	-19.4503
106.000000	72.607	-19.7639
107.500000	72.480	-20.0441
109.000000	72.356	-20.3187
110.599998	72.225	-20.5885
112.000000	72.108	-20.7837
113.800003	71.958	-20.9839
115.000000	71.860	-21.0957
117.199997	71.688	-21.2552
118.000000	71.626	-21.3051
120.599998	71.427	-21.4503
122.000000	71.325	-21.5002
124.099998	71.182	-21.5299
125.000000	71.123	-21.5255
126.500000	71.026	-21.4985
128.000000	70.928	-21.4570
131.500000	70.700	-21.3453
132.000000	70.669	-21.3314
134.000000	70.549	-21.2723
136.000000	70.434	-21.1847
138.000000	70.322	-21.0631
140.000000	70.212	-20.9288
143.000000	70.048	-20.7219
145.000000	69.949	-20.6116
147.500000	69.843	-20.4964
150.000000	69.747	-20.3525
152.500000	69.653	-20.1852
155.000000	69.563	-20.0344
157.500000	69.477	-19.8769
160.000000	69.399	-19.6676
162.500000	69.328	-19.3977
165.000000	69.260	-19.1224
167.500000	69.192	-18.8666
170.000000	69.126	-18.6024
172.500000	69.064	-18.3254
175.000000	69.005	-18.0618
177.500000	68.949	-17.8224
180.000000	68.896	-17.6071
182.500000	68.846	-17.4110
185.000000	68.798	-17.2301
187.500000	68.753	-17.0669
190.000000	68.712	-16.8998
192.500000	68.675	-16.7107
195.000000	68.643	-16.5147
197.500000	68.617	-16.3392
200.000000	68.597	-16.1951
203.000000	68.577	-16.0465
206.000000	68.559	-15.8999
209.000000	68.545	-15.7419
212.000000	68.531	-15.5628
214.000000	68.519	-15.4376
218.000000	68.492	-15.1867
220.000000	68.480	-15.0622
224.000000	68.459	-14.8123
227.000000	68.442	-14.6282
230.000000	68.427	-14.4605
233.000000	68.411	-14.3049
236.000000	68.394	-14.1410
240.000000	68.367	-13.9186
243.000000	68.343	-13.7612
247.000000	68.305	-13.5423
250.000000	68.272	-13.3691
254.000000	68.224	-13.1360
258.000000	68.176	-12.8790
262.000000	68.134	-12.5767
265.000000	68.109	-12.3134
269.000000	68.091	-11.8996
272.000000	68.088	-11.5616
276.000000	68.098	-11.1349
280.000000	68.119	-10.7790
285.000000	68.150	-10.4499
290.000000	68.174	-10.2295
295.000000	68.187	-10.0865
300.000000	68.186	-9.9898
304.000000	68.176	-9.9346
307.000000	68.164	-9.8950
311.000000	68.142	-9.8307
315.000000	68.115	-9.7522
320.000000	68.075	-9.6384
325.000000	68.033	-9.4983
330.000000	67.990	-9.3200
335.000000	67.950	-9.1037
340.000000	67.914	-8.8534
345.000000	67.880	-8.5854
350.000000	67.844	-8.3045
355.000000	67.807	-8.0219
360.000000	67.773	-7.7426
365.000000	67.744	-7.4747
370.000000	67.719	-7.2183
375.000000	67.698	-6.9667
382.000000	67.677	-6.6682
387.000000	67.667	-6.5156
395.000000	67.651	-6.3666
400.000000	67.636	-6.2962
406.000000	67.616	-6.1833
412.000000	67.597	-6.0397
418.000000	67.582	-5.8844
425.000000	67.566	-5.6676
431.000000	67.551	-5.4570
437.000000	67.532	-5.2531
444.000000	67.506	-5.0277
450.000000	67.483	-4.8273
455.000000	67.466	-4.6437
462.000000	67.448	-4.3549
468.000000	67.437	-4.0801
475.000000	67.427	-3.7422
482.000000	67.415	-3.4091
487.000000	67.406	-3.1743
494.000000	67.393	-2.8488
500.000000	67.383	-2.5776
508.000000	67.376	-2.2149
515.000000	67.376	-1.8842
522.000000	67.378	-1.5609
530.000000	67.380	-1.2605
538.000000	67.382	-1.0721
545.000000	67.381	-0.9972
552.000000	67.377	-1.0071
560.000000	67.369	-1.1261
570.000000	67.358	-1.4160
580.000000	67.350	-1.7985
590.000000	67.342	-2.2452
600.000000	67.334	-2.7666
608.000000	67.330	-3.2082
615.000000	67.328	-3.5814
622.000000	67.327	-3.9260
630.000000	67.325	-4.2826
640.000000	67.324	-4.6788
650.000000	67.323	-5.0497
660.000000	67.319	-5.4390
670.000000	67.316	-5.8446
680.000000	67.313	-6.2383
690.000000	67.313	-6.6242
700.000000	67.317	-7.0231
710.000000	67.322	-7.4372
720.000000	67.325	-7.8439
730.000000	67.327	-8.2306
740.000000	67.328	-8.5978
750.000000	67.331	-8.9510
762.000000	67.337	-9.3747
775.000000	67.340	-9.8517
788.000000	67.343	-10.3785
800.000000	67.353	-10.9008
812.000000	67.373	-11.4492
825.000000	67.407	-12.1070
838.000000	67.446	-12.8563
850.000000	67.484	-13.6295
862.000000	67.520	-14.4609
875.000000	67.559	-15.3934
885.000000	67.588	-16.1114
900.000000	67.630	-17.1755
912.000000	67.664	-18.0497
925.000000	67.698	-19.0582
938.000000	67.726	-20.1122
950.000000	67.749	-21.0973
962.000000	67.774	-22.0722
975.000000	67.803	-23.0751
988.000000	67.832	-23.9765
1000.000000	67.860	-24.7126
1015.000000	67.898	-25.5242
1030.000000	67.932	-26.2197
1044.000000	67.957	-26.7789
1060.000000	67.986	-27.3501
1075.000000	68.018	-27.8473
1090.000000	68.054	-28.3195
1106.000000	68.095	-28.8149
1120.000000	68.135	-29.2582
1138.000000	68.191	-29.8247
1150.000000	68.231	-30.1747
1172.000000	68.312	-30.7200
1180.000000	68.345	-30.8844
1206.000000	68.461	-31.3211
1220.000000	68.530	-31.5187
1241.000000	68.655	-31.8094
1250.000000	68.719	-31.9566
1265.000000	68.836	-32.2784
1280.000000	68.959	-32.7353
1315.000000	69.221	-34.4522
1320.000000	69.252	-34.7628
1340.000000	69.360	-36.1087
1360.000000	69.440	-37.5608
1380.000000	69.498	-39.0806
1400.000000	69.545	-40.6563
1430.000000	69.610	-43.0562
1450.000000	69.649	-44.5987
1475.000000	69.697	-46.3783
1500.000000	69.749	-47.9380
1525.000000	69.798	-49.3004
1550.000000	69.844	-50.5191
1575.000000	69.901	-51.6064
1600.000000	69.979	-52.5356
1625.000000	70.080	-53.3377
1650.000000	70.205	-54.1197
1675.000000	70.345	-55.0190
1700.000000	70.492	-56.1025
1725.000000	70.643	-57.2911
1750.000000	70.797	-58.4513
1775.000000	70.955	-59.5222
1800.000000	71.111	-60.5499
1825.000000	71.263	-61.6411
1850.000000	71.410	-62.8485
1875.000000	71.559	-64.1321
1900.000000	71.718	-65.4295
1925.000000	71.883	-66.7133
1950.000000	72.053	-67.9789
1975.000000	72.230	-69.1899
2000.000000	72.415	-70.2942
2030.000000	72.647	-71.5388
2060.000000	72.880	-72.9053
2090.000000	73.105	-74.6302
2120.000000	73.322	-76.8047
2140.000000	73.466	-78.4778
2180.000000	73.757	-82.2370
2200.000000	73.904	-84.2985
2240.000000	74.196	-88.7889
2270.000000	74.407	-92.4420
2300.000000	74.616	-96.2580
2330.000000	74.824	-100.1438
2360.000000	75.029	-104.0215
2400.000000	75.294	-108.9452
2430.000000	75.495	-112.2367
2470.000000	75.768	-115.9878
2500.000000	75.963	-118.4635
2540.000000	76.201	-121.5801
2580.000000	76.414	-124.6130
2620.000000	76.607	-127.5437
2650.000000	76.748	-129.6433
2690.000000	76.932	-132.3789
2720.000000	77.058	-134.4716
2760.000000	77.210	-137.3576
2800.000000	77.347	-140.2887
2850.000000	77.498	-143.9195
2900.000000	77.622	-147.4729
2950.000000	77.721	-150.9377
3000.000000	77.797	-154.3826
3040.000000	77.836	-157.2528
3070.000000	77.849	-159.5149
3110.000000	77.849	-162.6085
3150.000000	77.837	-165.6304
3200.000000	77.807	-169.1243
3250.000000	77.760	-172.2827
3300.000000	77.694	-175.2259
3350.000000	77.608	-178.0939
3400.000000	77.504	179.0770
3450.000000	77.388	176.3378
3500.000000	77.264	173.7460
3550.000000	77.134	171.3532
3600.000000	77.001	169.1904
3650.000000	76.868	167.2386
3700.000000	76.735	165.4269
3750.000000	76.603	163.6559
3820.000000	76.420	161.0367
3870.000000	76.287	159.0059
3950.000000	76.084	155.6342
4000.000000	75.966	153.4781
4060.000000	75.832	150.8294
4120.000000	75.711	148.3260
4180.000000	75.615	146.2379
4250.000000	75.526	144.2853
4310.000000	75.464	142.8447
4370.000000	75.414	141.5130
4440.000000	75.366	139.9435
4500.000000	75.330	138.4489
4550.000000	75.302	137.0584
4620.000000	75.258	134.8329
4680.000000	75.203	132.6607
4750.000000	75.108	130.0785
4820.000000	74.978	127.8428
4870.000000	74.860	126.5513
4940.000000	74.657	125.0948
5000.000000	74.445	124.0923
5080.000000	74.112	123.1488
5150.000000	73.771	122.7497
5220.000000	73.384	122.6713
5300.000000	72.892	122.7531
5380.000000	72.360	122.9583
5450.000000	71.879	123.4949
5520.000000	71.403	124.7242
5600.000000	70.885	127.2424
5700.000000	70.297	131.9361
5800.000000	69.794	137.9879
5900.000000	69.391	145.2911
6000.000000	69.088	153.7257
6080.000000	68.906	160.8352
6150.000000	68.780	166.8816
6220.000000	68.678	172.5521
6300.000000	68.588	178.3785
6400.000000	68.510	-175.9405
6500.000000	68.451	-172.8059
6600.000000	68.408	-172.0698
6700.000000	68.403	-172.6813
6800.000000	68.448	-173.6566
6900.000000	68.546	-174.3825
7000.000000	68.707	-174.5349
7100.000000	68.936	-174.2276
7200.000000	69.232	-173.7646
7300.000000	69.604	-173.3919
7400.000000	70.049	-173.4944
7500.000000	70.556	-174.5367
7620.000000	71.220	-177.4433
7750.000000	71.923	176.8753
7880.000000	72.463	168.4974
8000.000000	72.680	159.3287
8120.000000	72.518	149.9020
8250.000000	71.857	140.1869
8380.000000	70.752	131.9559
8500.000000	69.471	126.5249
8620.000000	68.087	123.4047
8750.000000	66.616	122.3127
8850.000000	65.577	122.7844
9000.000000	64.243	125.1495
9120.000000	63.389	128.0940
9250.000000	62.668	132.0104
9380.000000	62.141	136.5162
9500.000000	61.808	141.0888
9620.000000	61.607	145.9752
9750.000000	61.522	151.5711
9880.000000	61.553	157.4613
10000.000000	61.664	163.1717
10150.000000	61.884	170.6671
10300.000000	62.164	178.2597
10440.000000	62.451	-175.0815
10600.000000	62.797	-168.3075
10750.000000	63.131	-162.7924
10900.000000	63.463	-158.1313
11060.000000	63.810	-154.1956
11200.000000	64.112	-151.6011
11380.000000	64.511	-149.1013
11500.000000	64.796	-147.7090
11720.000000	65.387	-145.4467
11800.000000	65.632	-144.7246
12060.000000	66.592	-142.4383
12200.000000	67.239	-141.2340
12410.000000	68.376	-140.2110
12500.000000	68.908	-140.3259
12650.000000	69.800	-141.6778
12800.000000	70.614	-144.8633
13150.000000	71.557	-158.7200
13200.000000	71.530	-161.0556
13400.000000	70.954	-170.0130
13600.000000	69.704	-176.7490
13800.000000	67.991	-179.5772
14000.000000	66.074	-177.8743
14300.000000	63.297	-169.0165
14500.000000	61.702	-161.0723
14750.000000	60.054	-150.1855
15000.000000	58.700	-138.7875
15250.000000	57.571	-126.2270
15500.000000	56.693	-111.8253
15750.000000	56.095	-96.5483
16000.000000	55.668	-82.3434
16250.000000	55.198	-69.9539
16500.000000	54.520	-58.0630
16750.000000	53.658	-44.3223
17000.000000	52.790	-27.5278
17250.000000	52.111	-8.8114
17500.000000	51.718	9.1010
17750.000000	51.616	24.8167
18000.000000	51.758	37.9812
18250.000000	52.090	48.7334
18500.000000	52.568	58.2731
18750.000000	53.135	68.0108
19000.000000	53.737	78.7935
19250.000000	54.318	90.0111
19500.000000	54.827	99.8467
19750.000000	55.222	106.7944
20000.000000	55.439	110.2374
