* Measurement data measured by REW V5.31.3
* Source: Microphone (USB Sound Device        ), MICROPHONE (Master Volume), L, volume: 0.700
* Format: 256k Log Swept Sine, 1 sweep at -12.0 dBFS with no timing reference
* Dated: 29-Jan-2025 18:34:23
* REW Settings:
*  C-weighting compensation: Off
*  Target level: 75.0 dB
* Note: 
* Measurement: Dunu Kima 2 L
* Smoothing: 1/12 octave
* Frequency Step: 1/48 octave
* Start Frequency: 20.300 Hz
*
* Freq(Hz)	SPL(dB)	Phase(degrees)
20.299999	70.707	-137.9335
20.600000	70.726	-138.3649
20.900000	70.750	-138.9032
21.200001	70.774	-139.4772
21.400000	70.789	-139.8658
21.799999	70.820	-140.6437
22.000000	70.834	-141.0290
22.400000	70.864	-141.7840
22.700001	70.885	-142.3312
23.000000	70.907	-142.8600
23.299999	70.928	-143.3712
23.600000	70.948	-143.8675
24.000000	70.973	-144.5121
24.299999	70.989	-144.9863
24.700001	71.009	-145.6087
25.000000	71.022	-146.0681
25.400000	71.039	-146.6694
25.799999	71.056	-147.2558
26.200001	71.073	-147.8264
26.500000	71.084	-148.2438
26.900000	71.098	-148.7868
27.200001	71.108	-149.1846
27.600000	71.120	-149.7039
28.000000	71.132	-150.2122
28.500000	71.145	-150.8339
29.000000	71.157	-151.4408
29.500000	71.168	-152.0314
30.000000	71.178	-152.6042
30.400000	71.186	-153.0497
30.700001	71.192	-153.3768
31.100000	71.198	-153.8042
31.500000	71.204	-154.2223
32.000000	71.212	-154.7329
32.500000	71.220	-155.2307
33.000000	71.228	-155.7168
33.500000	71.234	-156.1917
34.000000	71.241	-156.6559
34.500000	71.246	-157.1093
35.000000	71.251	-157.5522
35.500000	71.255	-157.9853
36.000000	71.258	-158.4091
36.500000	71.261	-158.8239
37.000000	71.264	-159.2291
37.500000	71.267	-159.6249
38.200001	71.268	-160.1651
38.700001	71.267	-160.5426
39.500000	71.265	-161.1323
40.000000	71.263	-161.4905
40.599998	71.262	-161.9088
41.200001	71.262	-162.3154
41.799999	71.264	-162.7115
42.500000	71.267	-163.1627
43.099998	71.268	-163.5423
43.700001	71.267	-163.9159
44.400002	71.265	-164.3423
45.000000	71.262	-164.6978
45.500000	71.259	-164.9877
46.200001	71.254	-165.3858
46.799999	71.249	-165.7221
47.500000	71.247	-166.1122
48.200001	71.248	-166.5028
48.700001	71.251	-166.7788
49.400002	71.257	-167.1504
50.000000	71.259	-167.4491
50.799999	71.252	-167.8259
51.500000	71.238	-168.1475
52.200001	71.224	-168.4676
53.000000	71.210	-168.8317
53.799999	71.198	-169.1922
54.500000	71.190	-169.5019
55.200001	71.183	-169.8047
56.000000	71.174	-170.1438
57.000000	71.163	-170.5595
58.000000	71.151	-170.9660
59.000000	71.139	-171.3622
60.000000	71.127	-171.7481
60.799999	71.118	-172.0490
61.500000	71.110	-172.3062
62.200001	71.102	-172.5578
63.000000	71.094	-172.8398
64.000000	71.084	-173.1860
65.000000	71.074	-173.5261
66.000000	71.064	-173.8604
67.000000	71.053	-174.1889
68.000000	71.041	-174.5110
69.000000	71.026	-174.8271
70.000000	71.010	-175.1371
71.000000	70.995	-175.4403
72.000000	70.981	-175.7360
73.000000	70.970	-176.0240
74.000000	70.958	-176.3047
75.000000	70.945	-176.5790
76.199997	70.928	-176.9009
77.500000	70.907	-177.2377
78.800003	70.886	-177.5567
80.000000	70.868	-177.8327
81.199997	70.851	-178.0936
82.500000	70.834	-178.3670
83.800003	70.822	-178.6400
85.000000	70.811	-178.8982
86.199997	70.800	-179.1634
87.500000	70.785	-179.4541
88.500000	70.773	-179.6757
90.000000	70.753	179.9988
91.199997	70.737	179.7445
92.500000	70.720	179.4739
93.800003	70.704	179.2071
95.000000	70.687	178.9635
96.199997	70.669	178.7227
97.500000	70.647	178.4666
98.800003	70.625	178.2156
100.000000	70.605	177.9882
101.500000	70.583	177.7094
103.000000	70.564	177.4369
104.400002	70.546	177.1882
106.000000	70.524	176.9117
107.500000	70.501	176.6612
109.000000	70.478	176.4187
110.599998	70.452	176.1685
112.000000	70.429	175.9571
113.800003	70.400	175.6957
115.000000	70.380	175.5276
117.199997	70.345	175.2293
118.000000	70.333	175.1226
120.599998	70.295	174.7778
122.000000	70.275	174.5919
124.099998	70.245	174.3134
125.000000	70.232	174.1949
126.500000	70.210	173.9998
128.000000	70.186	173.8081
131.500000	70.131	173.3755
132.000000	70.123	173.3152
134.000000	70.091	173.0778
136.000000	70.058	172.8475
138.000000	70.024	172.6232
140.000000	69.989	172.4044
143.000000	69.937	172.0873
145.000000	69.903	171.8835
147.500000	69.860	171.6357
150.000000	69.818	171.3953
152.500000	69.778	171.1626
155.000000	69.738	170.9384
157.500000	69.696	170.7236
160.000000	69.652	170.5178
162.500000	69.610	170.3199
165.000000	69.571	170.1298
167.500000	69.532	169.9474
170.000000	69.492	169.7719
172.500000	69.452	169.6019
175.000000	69.410	169.4364
177.500000	69.363	169.2762
180.000000	69.309	169.1224
182.500000	69.245	168.9758
185.000000	69.168	168.8380
187.500000	69.078	168.7122
190.000000	68.981	168.6032
192.500000	68.885	168.5155
195.000000	68.796	168.4552
197.500000	68.717	168.4307
200.000000	68.648	168.4519
203.000000	68.577	168.5544
206.000000	68.518	168.7632
209.000000	68.469	169.1061
212.000000	68.431	169.6003
214.000000	68.414	170.0068
218.000000	68.413	170.9106
220.000000	68.433	171.3381
224.000000	68.508	171.9668
227.000000	68.578	172.1567
230.000000	68.642	172.1100
233.000000	68.689	171.8881
236.000000	68.717	171.5670
240.000000	68.724	171.0895
243.000000	68.710	170.7441
247.000000	68.674	170.3353
250.000000	68.639	170.0736
254.000000	68.590	169.7824
258.000000	68.539	169.5490
262.000000	68.486	169.3654
265.000000	68.446	169.2556
269.000000	68.393	169.1395
272.000000	68.353	169.0707
276.000000	68.300	168.9986
280.000000	68.249	168.9445
285.000000	68.186	168.8987
290.000000	68.123	168.8754
295.000000	68.061	168.8735
300.000000	67.999	168.8914
304.000000	67.949	168.9177
307.000000	67.911	168.9437
311.000000	67.861	168.9865
315.000000	67.812	169.0380
320.000000	67.752	169.1134
325.000000	67.693	169.1985
330.000000	67.638	169.2912
335.000000	67.585	169.3919
340.000000	67.536	169.5020
345.000000	67.489	169.6217
350.000000	67.438	169.7501
355.000000	67.382	169.8874
360.000000	67.325	170.0348
365.000000	67.272	170.1931
370.000000	67.221	170.3625
375.000000	67.171	170.5426
382.000000	67.101	170.8095
387.000000	67.053	171.0088
395.000000	66.981	171.3394
400.000000	66.938	171.5540
406.000000	66.886	171.8239
412.000000	66.833	172.1137
418.000000	66.780	172.4282
425.000000	66.723	172.8239
431.000000	66.678	173.1800
437.000000	66.637	173.5414
444.000000	66.595	173.9581
450.000000	66.564	174.3039
455.000000	66.542	174.5799
462.000000	66.516	174.9453
468.000000	66.494	175.2413
475.000000	66.468	175.5726
482.000000	66.440	175.8912
487.000000	66.419	176.1120
494.000000	66.388	176.4130
500.000000	66.362	176.6661
508.000000	66.327	177.0010
515.000000	66.297	177.2946
522.000000	66.265	177.5903
530.000000	66.224	177.9348
538.000000	66.182	178.2958
545.000000	66.144	178.6305
552.000000	66.110	178.9775
560.000000	66.074	179.3736
570.000000	66.029	179.8503
580.000000	65.977	-179.6782
590.000000	65.915	-179.1538
600.000000	65.851	-178.5189
608.000000	65.805	-177.9322
615.000000	65.772	-177.3872
622.000000	65.747	-176.8372
630.000000	65.726	-176.2224
640.000000	65.706	-175.4860
650.000000	65.691	-174.7798
660.000000	65.680	-174.0917
670.000000	65.671	-173.4111
680.000000	65.661	-172.7319
690.000000	65.652	-172.0517
700.000000	65.643	-171.3701
710.000000	65.638	-170.6881
720.000000	65.635	-170.0045
730.000000	65.634	-169.3181
740.000000	65.637	-168.6286
750.000000	65.641	-167.9354
762.000000	65.649	-167.0964
775.000000	65.659	-166.1768
788.000000	65.674	-165.2454
800.000000	65.693	-164.3786
812.000000	65.717	-163.5099
825.000000	65.748	-162.5719
838.000000	65.784	-161.6426
850.000000	65.824	-160.7996
862.000000	65.869	-159.9770
875.000000	65.924	-159.1112
885.000000	65.970	-158.4617
900.000000	66.041	-157.5103
912.000000	66.099	-156.7659
925.000000	66.164	-155.9745
938.000000	66.233	-155.2002
950.000000	66.300	-154.5032
962.000000	66.369	-153.8266
975.000000	66.448	-153.1189
988.000000	66.532	-152.4385
1000.000000	66.612	-151.8362
1015.000000	66.716	-151.1228
1030.000000	66.822	-150.4582
1044.000000	66.925	-149.8835
1060.000000	67.043	-149.2786
1075.000000	67.155	-148.7599
1090.000000	67.265	-148.2847
1106.000000	67.380	-147.8196
1120.000000	67.482	-147.4425
1138.000000	67.613	-146.9932
1150.000000	67.700	-146.7144
1172.000000	67.862	-146.2442
1180.000000	67.921	-146.0857
1206.000000	68.121	-145.6128
1220.000000	68.234	-145.3835
1241.000000	68.414	-145.0702
1250.000000	68.496	-144.9463
1265.000000	68.637	-144.7526
1280.000000	68.781	-144.5728
1315.000000	69.093	-144.1899
1320.000000	69.130	-144.1380
1340.000000	69.249	-143.9361
1360.000000	69.319	-143.7437
1380.000000	69.354	-143.5620
1400.000000	69.375	-143.3914
1430.000000	69.428	-143.1560
1450.000000	69.492	-143.0143
1475.000000	69.602	-142.8574
1500.000000	69.738	-142.7252
1525.000000	69.886	-142.6178
1550.000000	70.039	-142.5327
1575.000000	70.190	-142.4661
1600.000000	70.338	-142.4133
1625.000000	70.481	-142.3704
1650.000000	70.622	-142.3367
1675.000000	70.760	-142.3138
1700.000000	70.897	-142.3044
1725.000000	71.034	-142.3114
1750.000000	71.169	-142.3375
1775.000000	71.303	-142.3840
1800.000000	71.436	-142.4516
1825.000000	71.568	-142.5405
1850.000000	71.701	-142.6506
1875.000000	71.833	-142.7832
1900.000000	71.964	-142.9397
1925.000000	72.093	-143.1207
1950.000000	72.221	-143.3269
1975.000000	72.349	-143.5598
2000.000000	72.476	-143.8215
2030.000000	72.628	-144.1767
2060.000000	72.778	-144.5816
2090.000000	72.926	-145.0404
2120.000000	73.070	-145.5534
2140.000000	73.163	-145.9239
2180.000000	73.342	-146.7256
2200.000000	73.428	-147.1544
2240.000000	73.593	-148.0640
2270.000000	73.711	-148.7892
2300.000000	73.822	-149.5482
2330.000000	73.929	-150.3391
2360.000000	74.029	-151.1626
2400.000000	74.153	-152.3138
2430.000000	74.238	-153.2200
2470.000000	74.343	-154.4915
2500.000000	74.413	-155.4932
2540.000000	74.492	-156.8872
2580.000000	74.555	-158.3336
2620.000000	74.600	-159.8125
2650.000000	74.622	-160.9301
2690.000000	74.637	-162.4160
2720.000000	74.637	-163.5173
2760.000000	74.624	-164.9561
2800.000000	74.599	-166.3496
2850.000000	74.554	-168.0119
2900.000000	74.495	-169.5716
2950.000000	74.425	-171.0193
3000.000000	74.346	-172.3535
3040.000000	74.279	-173.3427
3070.000000	74.228	-174.0421
3110.000000	74.161	-174.9223
3150.000000	74.095	-175.7471
3200.000000	74.016	-176.7052
3250.000000	73.942	-177.5872
3300.000000	73.869	-178.4002
3350.000000	73.798	-179.1518
3400.000000	73.727	-179.8478
3450.000000	73.655	179.5070
3500.000000	73.585	178.9068
3550.000000	73.519	178.3455
3600.000000	73.463	177.8177
3650.000000	73.423	177.3134
3700.000000	73.402	176.8079
3750.000000	73.400	176.2683
3820.000000	73.417	175.4400
3870.000000	73.436	174.8065
3950.000000	73.465	173.7214
4000.000000	73.475	172.9878
4060.000000	73.470	172.0410
4120.000000	73.439	171.0247
4180.000000	73.377	169.9541
4250.000000	73.269	168.6652
4310.000000	73.150	167.5500
4370.000000	73.017	166.4445
4440.000000	72.854	165.1899
4500.000000	72.718	164.1540
4550.000000	72.608	163.3195
4620.000000	72.456	162.2048
4680.000000	72.323	161.3142
4750.000000	72.160	160.3590
4820.000000	71.986	159.4911
4870.000000	71.854	158.9280
4940.000000	71.659	158.2253
5000.000000	71.484	157.7005
5080.000000	71.241	157.1091
5150.000000	71.019	156.6950
5220.000000	70.791	156.3803
5300.000000	70.521	156.1458
5380.000000	70.245	156.0492
5450.000000	70.000	156.0798
5520.000000	69.756	156.2173
5600.000000	69.486	156.5038
5700.000000	69.166	157.0540
5800.000000	68.871	157.8131
5900.000000	68.609	158.7645
6000.000000	68.381	159.8837
6080.000000	68.219	160.8795
6150.000000	68.088	161.8067
6220.000000	67.967	162.7696
6300.000000	67.841	163.8945
6400.000000	67.704	165.3109
6500.000000	67.596	166.7148
6600.000000	67.517	168.0836
6700.000000	67.471	169.3970
6800.000000	67.461	170.6418
6900.000000	67.486	171.8069
7000.000000	67.548	172.8743
7100.000000	67.651	173.8104
7200.000000	67.802	174.5646
7300.000000	68.003	175.0782
7400.000000	68.251	175.2929
7500.000000	68.545	175.1508
7620.000000	68.937	174.4287
7750.000000	69.354	172.8798
7880.000000	69.679	170.4839
8000.000000	69.845	167.5511
8120.000000	69.861	164.0363
8250.000000	69.714	159.7737
8380.000000	69.420	155.2938
8500.000000	69.044	151.1873
8620.000000	68.587	147.2613
8750.000000	68.014	143.3059
8850.000000	67.513	140.5199
9000.000000	66.652	136.9010
9120.000000	65.861	134.6854
9250.000000	64.920	133.2113
9380.000000	63.935	132.8345
9500.000000	63.039	133.4232
9620.000000	62.196	134.7514
9750.000000	61.371	136.7904
9880.000000	60.642	139.2134
10000.000000	60.046	141.6246
10150.000000	59.382	144.7640
10300.000000	58.782	148.0802
10440.000000	58.274	151.3799
10600.000000	57.760	155.3436
10750.000000	57.348	159.1622
10900.000000	57.004	163.0150
11060.000000	56.707	167.1179
11200.000000	56.499	170.6837
11380.000000	56.290	175.2122
11500.000000	56.183	178.1764
11720.000000	56.051	-176.5268
11800.000000	56.022	-174.6377
12060.000000	55.978	-168.5184
12200.000000	55.982	-165.1459
12410.000000	56.039	-159.8466
12500.000000	56.089	-157.4694
12650.000000	56.215	-153.3866
12800.000000	56.398	-149.2300
13150.000000	57.032	-140.1292
13200.000000	57.147	-139.0026
13400.000000	57.688	-135.2034
13600.000000	58.392	-132.8364
13800.000000	59.259	-132.2184
14000.000000	60.218	-133.5641
14300.000000	61.572	-139.3521
14500.000000	62.243	-145.3915
14750.000000	62.658	-154.4281
15000.000000	62.550	-163.8018
15250.000000	61.960	-172.3574
15500.000000	60.944	-179.4113
15750.000000	59.561	175.7047
16000.000000	57.956	174.1350
16250.000000	56.500	176.4473
16500.000000	55.581	-179.1829
16750.000000	55.190	-175.2770
17000.000000	55.054	-172.5995
17250.000000	54.970	-170.7798
17500.000000	54.863	-169.3671
17750.000000	54.722	-168.0715
18000.000000	54.555	-166.7221
18250.000000	54.367	-165.2126
18500.000000	54.147	-163.4810
18750.000000	53.875	-161.4960
19000.000000	53.534	-159.2309
19250.000000	53.105	-156.6464
19500.000000	52.589	-153.7576
19750.000000	52.060	-150.8754
20000.000000	51.713	-148.9402
