* Measurement data measured by REW V5.31.3
* Source: Microphone (4- USB Audio Device), MICROPHONE (Master Volume), R, volume: 0.250
* Format: 256k Log Swept Sine, 1 sweep at -12.0 dBFS with no timing reference
* Dated: 01-Aug-2024 14:35:25
* REW Settings:
*  C-weighting compensation: Off
*  Target level: 75.0 dB
* Note: 
* Measurement: Dunu Titan S2 R
* Smoothing: 1/12 octave
* Frequency Step: 1/48 octave
* Start Frequency: 20.300 Hz
*
* Freq(Hz)	SPL(dB)	Phase(degrees)
20.299999	105.851	-80.3576
20.600000	105.940	-81.0285
20.900000	106.051	-81.8653
21.200001	106.168	-82.7595
21.400000	106.247	-83.3672
21.799999	106.403	-84.5924
22.000000	106.481	-85.2052
22.400000	106.635	-86.4208
22.700001	106.748	-87.3163
23.000000	106.859	-88.1933
23.299999	106.966	-89.0505
23.600000	107.069	-89.8893
24.000000	107.201	-90.9840
24.299999	107.294	-91.7914
24.700001	107.413	-92.8546
25.000000	107.499	-93.6441
25.400000	107.608	-94.6872
25.799999	107.715	-95.7184
26.200001	107.818	-96.7350
26.500000	107.894	-97.4855
26.900000	107.991	-98.4669
27.200001	108.061	-99.1875
27.600000	108.151	-100.1275
28.000000	108.236	-101.0470
28.500000	108.337	-102.1755
29.000000	108.433	-103.2921
29.500000	108.525	-104.4043
30.000000	108.614	-105.5098
30.400000	108.683	-106.3817
30.700001	108.734	-107.0228
31.100000	108.799	-107.8551
31.500000	108.862	-108.6584
32.000000	108.936	-109.6246
32.500000	109.005	-110.5594
33.000000	109.069	-111.4761
33.500000	109.129	-112.3828
34.000000	109.186	-113.2804
34.500000	109.242	-114.1652
35.000000	109.297	-115.0314
35.500000	109.351	-115.8745
36.000000	109.402	-116.6927
36.500000	109.450	-117.4887
37.000000	109.495	-118.2689
37.500000	109.537	-119.0401
38.200001	109.594	-120.1075
38.700001	109.634	-120.8533
39.500000	109.696	-121.9978
40.000000	109.733	-122.6798
40.599998	109.774	-123.4700
41.200001	109.810	-124.2361
41.799999	109.845	-124.9861
42.500000	109.886	-125.8556
43.099998	109.922	-126.6023
43.700001	109.956	-127.3411
44.400002	109.992	-128.1739
45.000000	110.022	-128.8597
45.500000	110.045	-129.4177
46.200001	110.076	-130.1868
46.799999	110.100	-130.8361
47.500000	110.123	-131.5807
48.200001	110.141	-132.3101
48.700001	110.152	-132.8198
49.400002	110.165	-133.5177
50.000000	110.177	-134.1057
50.799999	110.194	-134.8811
51.500000	110.205	-135.5464
52.200001	110.214	-136.1932
53.000000	110.218	-136.9130
53.799999	110.220	-137.6192
54.500000	110.219	-138.2261
55.200001	110.217	-138.8196
56.000000	110.214	-139.4812
57.000000	110.209	-140.2868
58.000000	110.202	-141.0691
59.000000	110.194	-141.8238
60.000000	110.186	-142.5476
60.799999	110.178	-143.1055
61.500000	110.171	-143.5795
62.200001	110.162	-144.0405
63.000000	110.151	-144.5506
64.000000	110.134	-145.1635
65.000000	110.116	-145.7512
66.000000	110.097	-146.3163
67.000000	110.079	-146.8628
68.000000	110.061	-147.3959
69.000000	110.042	-147.9204
70.000000	110.021	-148.4369
71.000000	109.999	-148.9411
72.000000	109.975	-149.4287
73.000000	109.950	-149.8970
74.000000	109.924	-150.3452
75.000000	109.895	-150.7715
76.199997	109.859	-151.2514
77.500000	109.818	-151.7346
78.800003	109.775	-152.1850
80.000000	109.735	-152.5706
81.199997	109.695	-152.9262
82.500000	109.653	-153.2831
83.800003	109.614	-153.6185
85.000000	109.581	-153.9206
86.199997	109.552	-154.2261
87.500000	109.521	-154.5653
88.500000	109.496	-154.8291
90.000000	109.455	-155.2169
91.199997	109.419	-155.5112
92.500000	109.379	-155.8120
93.800003	109.338	-156.0994
95.000000	109.300	-156.3553
96.199997	109.262	-156.6009
97.500000	109.222	-156.8531
98.800003	109.180	-157.0899
100.000000	109.142	-157.2956
101.500000	109.095	-157.5401
103.000000	109.048	-157.7742
104.400002	109.005	-157.9839
106.000000	108.954	-158.2149
107.500000	108.906	-158.4273
109.000000	108.857	-158.6367
110.599998	108.803	-158.8549
112.000000	108.757	-159.0385
113.800003	108.696	-159.2623
115.000000	108.655	-159.4044
117.199997	108.577	-159.6526
118.000000	108.548	-159.7385
120.599998	108.454	-159.9995
122.000000	108.402	-160.1290
124.099998	108.322	-160.3082
125.000000	108.287	-160.3779
126.500000	108.228	-160.4804
128.000000	108.166	-160.5620
131.500000	108.012	-160.6673
132.000000	107.988	-160.6728
134.000000	107.892	-160.6687
136.000000	107.793	-160.6135
138.000000	107.689	-160.4910
140.000000	107.580	-160.2766
143.000000	107.412	-159.6956
145.000000	107.305	-159.0811
147.500000	107.197	-158.0367
150.000000	107.142	-156.7477
152.500000	107.158	-155.4046
155.000000	107.248	-154.2997
157.500000	107.380	-153.6824
160.000000	107.508	-153.5966
162.500000	107.600	-153.8863
165.000000	107.642	-154.3418
167.500000	107.639	-154.8147
170.000000	107.602	-155.2357
172.500000	107.539	-155.5795
175.000000	107.460	-155.8405
177.500000	107.372	-156.0260
180.000000	107.280	-156.1508
182.500000	107.188	-156.2302
185.000000	107.097	-156.2742
187.500000	107.012	-156.2844
190.000000	106.932	-156.2555
192.500000	106.857	-156.1854
195.000000	106.786	-156.0794
197.500000	106.719	-155.9436
200.000000	106.653	-155.7818
203.000000	106.577	-155.5557
206.000000	106.501	-155.3023
209.000000	106.428	-155.0333
212.000000	106.360	-154.7553
214.000000	106.316	-154.5674
218.000000	106.232	-154.1960
220.000000	106.189	-154.0170
224.000000	106.102	-153.6687
227.000000	106.035	-153.4041
230.000000	105.966	-153.1279
233.000000	105.898	-152.8359
236.000000	105.833	-152.5259
240.000000	105.751	-152.0813
243.000000	105.691	-151.7204
247.000000	105.612	-151.1895
250.000000	105.554	-150.7496
254.000000	105.477	-150.1224
258.000000	105.399	-149.4773
262.000000	105.323	-148.8414
265.000000	105.267	-148.3784
269.000000	105.194	-147.7760
272.000000	105.140	-147.3313
276.000000	105.067	-146.7496
280.000000	104.995	-146.1865
285.000000	104.905	-145.5133
290.000000	104.819	-144.8672
295.000000	104.736	-144.2301
300.000000	104.656	-143.5914
304.000000	104.593	-143.0839
307.000000	104.547	-142.7067
311.000000	104.485	-142.2034
315.000000	104.424	-141.6926
320.000000	104.350	-141.0364
325.000000	104.277	-140.3559
330.000000	104.208	-139.6525
335.000000	104.142	-138.9346
340.000000	104.080	-138.2137
345.000000	104.019	-137.5000
350.000000	103.958	-136.7959
355.000000	103.895	-136.1021
360.000000	103.834	-135.4222
365.000000	103.775	-134.7589
370.000000	103.718	-134.1080
375.000000	103.663	-133.4609
382.000000	103.588	-132.5477
387.000000	103.535	-131.8909
395.000000	103.452	-130.8433
400.000000	103.402	-130.1902
406.000000	103.343	-129.4014
412.000000	103.285	-128.6045
418.000000	103.229	-127.8038
425.000000	103.167	-126.8665
431.000000	103.115	-126.0494
437.000000	103.064	-125.2086
444.000000	103.008	-124.1951
450.000000	102.961	-123.2972
455.000000	102.924	-122.5267
462.000000	102.875	-121.4141
468.000000	102.837	-120.4400
475.000000	102.798	-119.3044
482.000000	102.763	-118.1888
487.000000	102.739	-117.4094
494.000000	102.709	-116.3450
500.000000	102.683	-115.4597
508.000000	102.646	-114.3141
515.000000	102.611	-113.3198
522.000000	102.575	-112.3079
530.000000	102.534	-111.1245
538.000000	102.499	-109.9173
545.000000	102.474	-108.8421
552.000000	102.450	-107.7493
560.000000	102.421	-106.4893
570.000000	102.381	-104.9276
580.000000	102.341	-103.3895
590.000000	102.302	-101.8515
600.000000	102.264	-100.3019
608.000000	102.233	-99.0552
615.000000	102.206	-97.9540
622.000000	102.179	-96.8352
630.000000	102.154	-95.5419
640.000000	102.129	-93.9495
650.000000	102.107	-92.4184
660.000000	102.080	-90.9601
670.000000	102.050	-89.5967
680.000000	102.024	-88.3392
690.000000	102.007	-87.1587
700.000000	101.993	-86.0200
710.000000	101.981	-84.9142
720.000000	101.974	-83.8357
730.000000	101.972	-82.7741
740.000000	101.974	-81.7340
750.000000	101.979	-80.7247
762.000000	101.987	-79.5426
775.000000	101.999	-78.2656
788.000000	102.019	-76.9720
800.000000	102.043	-75.7413
812.000000	102.070	-74.4715
825.000000	102.102	-73.0928
838.000000	102.137	-71.7431
850.000000	102.166	-70.5356
862.000000	102.195	-69.3685
875.000000	102.230	-68.1467
885.000000	102.261	-67.2270
900.000000	102.308	-65.8316
912.000000	102.350	-64.6535
925.000000	102.406	-63.2975
938.000000	102.475	-61.8759
950.000000	102.543	-60.5395
962.000000	102.609	-59.2223
975.000000	102.682	-57.8447
988.000000	102.763	-56.5189
1000.000000	102.846	-55.3470
1015.000000	102.957	-54.0124
1030.000000	103.064	-52.8925
1044.000000	103.154	-52.0442
1060.000000	103.255	-51.2380
1075.000000	103.354	-50.5373
1090.000000	103.461	-49.8093
1106.000000	103.576	-49.0014
1120.000000	103.673	-48.2770
1138.000000	103.790	-47.2944
1150.000000	103.867	-46.5877
1172.000000	104.011	-45.1500
1180.000000	104.064	-44.5842
1206.000000	104.232	-42.6735
1220.000000	104.317	-41.6474
1241.000000	104.436	-40.1501
1250.000000	104.486	-39.5246
1265.000000	104.566	-38.5080
1280.000000	104.644	-37.5254
1315.000000	104.812	-35.3514
1320.000000	104.835	-35.0535
1340.000000	104.929	-33.8887
1360.000000	105.024	-32.8185
1380.000000	105.114	-31.9747
1400.000000	105.189	-31.4330
1430.000000	105.280	-31.0102
1450.000000	105.346	-30.7171
1475.000000	105.439	-30.0890
1500.000000	105.535	-29.1084
1525.000000	105.636	-27.7984
1550.000000	105.745	-26.2006
1575.000000	105.865	-24.4293
1600.000000	105.990	-22.6835
1625.000000	106.111	-21.1693
1650.000000	106.227	-19.9674
1675.000000	106.344	-19.0115
1700.000000	106.466	-18.1566
1725.000000	106.597	-17.3017
1750.000000	106.736	-16.4602
1775.000000	106.877	-15.7214
1800.000000	107.014	-15.1503
1825.000000	107.148	-14.7173
1850.000000	107.285	-14.3317
1875.000000	107.427	-13.9357
1900.000000	107.569	-13.5385
1925.000000	107.710	-13.1715
1950.000000	107.849	-12.8693
1975.000000	107.986	-12.6584
2000.000000	108.118	-12.5459
2030.000000	108.273	-12.4890
2060.000000	108.428	-12.4031
2090.000000	108.587	-12.2035
2120.000000	108.749	-11.9011
2140.000000	108.856	-11.6649
2180.000000	109.069	-11.1661
2200.000000	109.173	-10.9134
2240.000000	109.375	-10.3208
2270.000000	109.526	-9.6384
2300.000000	109.688	-8.6498
2330.000000	109.857	-7.4488
2360.000000	110.024	-6.2798
2400.000000	110.230	-5.1116
2430.000000	110.373	-4.5652
2470.000000	110.559	-4.0660
2500.000000	110.698	-3.7091
2540.000000	110.885	-3.1849
2580.000000	111.066	-2.7312
2620.000000	111.235	-2.5318
2650.000000	111.351	-2.5642
2690.000000	111.501	-2.7449
2720.000000	111.611	-2.9190
2760.000000	111.752	-3.2109
2800.000000	111.884	-3.6563
2850.000000	112.030	-4.5365
2900.000000	112.158	-5.7786
2950.000000	112.267	-7.2765
3000.000000	112.360	-8.8204
3040.000000	112.427	-9.9571
3070.000000	112.471	-10.7368
3110.000000	112.520	-11.7005
3150.000000	112.556	-12.5653
3200.000000	112.592	-13.3891
3250.000000	112.624	-13.8490
3300.000000	112.645	-14.0515
3350.000000	112.654	-14.0638
3400.000000	112.659	-13.7909
3450.000000	112.664	-13.1960
3500.000000	112.664	-12.3443
3550.000000	112.661	-11.2721
3600.000000	112.658	-10.0155
3650.000000	112.656	-8.6882
3700.000000	112.652	-7.4363
3750.000000	112.645	-6.3625
3820.000000	112.632	-5.2060
3870.000000	112.621	-4.5653
3950.000000	112.602	-3.6119
4000.000000	112.593	-2.8730
4060.000000	112.593	-1.7356
4120.000000	112.599	-0.4883
4180.000000	112.607	0.5888
4250.000000	112.613	1.4344
4310.000000	112.617	1.8148
4370.000000	112.617	1.9438
4440.000000	112.614	1.8827
4500.000000	112.607	1.7191
4550.000000	112.597	1.5552
4620.000000	112.575	1.3657
4680.000000	112.546	1.2793
4750.000000	112.496	1.2613
4820.000000	112.423	1.2482
4870.000000	112.353	1.1810
4940.000000	112.225	1.0337
5000.000000	112.089	1.0537
5080.000000	111.886	1.6726
5150.000000	111.698	2.7677
5220.000000	111.500	3.8410
5300.000000	111.243	4.2013
5380.000000	110.951	3.4524
5450.000000	110.673	2.2880
5520.000000	110.378	1.1026
5600.000000	110.030	0.1674
5700.000000	109.590	-0.0833
5800.000000	109.148	0.4771
5900.000000	108.709	1.6409
6000.000000	108.286	3.4815
6080.000000	107.968	5.5152
6150.000000	107.706	7.6586
6220.000000	107.461	10.0407
6300.000000	107.204	12.8914
6400.000000	106.913	16.3563
6500.000000	106.658	19.5381
6600.000000	106.448	22.4079
6700.000000	106.282	24.8151
6800.000000	106.162	26.5583
6900.000000	106.089	27.5728
7000.000000	106.068	28.0079
7100.000000	106.098	28.0074
7200.000000	106.172	27.5981
7300.000000	106.285	26.9607
7400.000000	106.436	26.4219
7500.000000	106.615	26.1267
7620.000000	106.840	25.9419
7750.000000	107.065	25.6811
7880.000000	107.229	24.9762
8000.000000	107.290	23.5615
8120.000000	107.235	21.1840
8250.000000	107.015	17.2533
8380.000000	106.613	12.0546
8500.000000	106.093	6.8688
8620.000000	105.455	2.0913
8750.000000	104.661	-2.1964
8850.000000	104.005	-4.8847
9000.000000	102.990	-8.3388
9120.000000	102.183	-10.7480
9250.000000	101.349	-12.9258
9380.000000	100.579	-14.7556
9500.000000	99.938	-16.3390
9620.000000	99.375	-17.8192
9750.000000	98.871	-19.1872
9880.000000	98.481	-20.3581
10000.000000	98.220	-21.4518
10150.000000	98.014	-23.3080
10300.000000	97.906	-26.2459
10440.000000	97.863	-30.1366
10600.000000	97.842	-35.7406
10750.000000	97.833	-41.5805
10900.000000	97.835	-47.3840
11060.000000	97.860	-53.4514
11200.000000	97.905	-59.0808
11380.000000	98.011	-67.1535
11500.000000	98.126	-72.8655
11720.000000	98.472	-82.6690
11800.000000	98.653	-85.7048
12060.000000	99.471	-94.3978
12200.000000	100.068	-99.4530
12410.000000	101.176	-108.8991
12500.000000	101.724	-113.7402
12650.000000	102.715	-122.7411
12800.000000	103.751	-132.8279
13150.000000	105.846	-161.7301
13200.000000	106.052	-166.5544
13400.000000	106.503	172.6479
13600.000000	106.259	150.8315
13800.000000	105.361	130.7617
14000.000000	104.011	114.7176
14300.000000	101.678	98.2587
14500.000000	100.194	90.2568
14750.000000	98.622	81.3927
15000.000000	97.446	72.1518
15250.000000	96.677	61.5181
15500.000000	96.310	49.2617
15750.000000	96.297	35.1800
16000.000000	96.533	19.1194
16250.000000	96.890	1.4132
16500.000000	97.206	-17.8168
16750.000000	97.312	-38.6581
17000.000000	97.089	-60.3577
17250.000000	96.491	-82.2633
17500.000000	95.558	-104.0665
17750.000000	94.390	-124.4280
18000.000000	93.122	-141.1068
18250.000000	91.880	-153.7175
18500.000000	90.761	-163.8579
18750.000000	89.826	-173.2742
19000.000000	89.094	177.4491
19250.000000	88.546	168.5881
19500.000000	88.146	160.1650
19750.000000	87.880	152.3494
20000.000000	87.750	147.1174
