* Measurement data measured by REW V5.31.3
* Source: Microphone (USB Sound Device        ), MICROPHONE (Master Volume), L, volume: 0.700
* Format: 256k Log Swept Sine, 1 sweep at -12.0 dBFS with no timing reference
* Dated: 29-Jan-2025 17:50:54
* REW Settings:
*  C-weighting compensation: Off
*  Target level: 75.0 dB
* Note: 
* Measurement: Dunu Falcon Ultra B L
* Smoothing: 1/12 octave
* Frequency Step: 1/48 octave
* Start Frequency: 20.300 Hz
*
* Freq(Hz)	SPL(dB)	Phase(degrees)
20.299999	68.847	-115.0440
20.600000	68.903	-115.6448
20.900000	68.972	-116.3954
21.200001	69.045	-117.1958
21.400000	69.093	-117.7370
21.799999	69.186	-118.8183
22.000000	69.231	-119.3538
22.400000	69.322	-120.4074
22.700001	69.389	-121.1794
23.000000	69.455	-121.9352
23.299999	69.520	-122.6764
23.600000	69.582	-123.4052
24.000000	69.661	-124.3622
24.299999	69.716	-125.0710
24.700001	69.784	-126.0054
25.000000	69.833	-126.6980
25.400000	69.897	-127.6091
25.799999	69.958	-128.5046
26.200001	70.018	-129.3834
26.500000	70.061	-130.0313
26.900000	70.116	-130.8808
27.200001	70.156	-131.5075
27.600000	70.207	-132.3303
28.000000	70.255	-133.1390
28.500000	70.313	-134.1313
29.000000	70.366	-135.1044
29.500000	70.417	-136.0599
30.000000	70.465	-136.9987
30.400000	70.502	-137.7370
30.700001	70.527	-138.2826
31.100000	70.560	-138.9990
31.500000	70.591	-139.7027
32.000000	70.629	-140.5662
32.500000	70.666	-141.4140
33.000000	70.701	-142.2475
33.500000	70.734	-143.0661
34.000000	70.764	-143.8690
34.500000	70.792	-144.6562
35.000000	70.818	-145.4288
35.500000	70.841	-146.1881
36.000000	70.863	-146.9352
36.500000	70.884	-147.6696
37.000000	70.904	-148.3910
37.500000	70.922	-149.0990
38.200001	70.943	-150.0693
38.700001	70.955	-150.7486
39.500000	70.971	-151.8119
40.000000	70.980	-152.4613
40.599998	70.990	-153.2259
41.200001	71.000	-153.9756
41.799999	71.012	-154.7105
42.500000	71.023	-155.5479
43.099998	71.030	-156.2484
43.700001	71.035	-156.9353
44.400002	71.038	-157.7222
45.000000	71.040	-158.3847
45.500000	71.039	-158.9281
46.200001	71.037	-159.6759
46.799999	71.035	-160.3041
47.500000	71.034	-161.0198
48.200001	71.036	-161.7169
48.700001	71.040	-162.2058
49.400002	71.045	-162.8813
50.000000	71.044	-163.4523
50.799999	71.030	-164.1981
51.500000	71.011	-164.8341
52.200001	70.992	-165.4552
53.000000	70.971	-166.1500
53.799999	70.953	-166.8317
54.500000	70.937	-167.4170
55.200001	70.922	-167.9894
56.000000	70.904	-168.6264
57.000000	70.880	-169.3993
58.000000	70.854	-170.1525
59.000000	70.828	-170.8896
60.000000	70.801	-171.6081
60.799999	70.779	-172.1680
61.500000	70.760	-172.6474
62.200001	70.740	-173.1177
63.000000	70.718	-173.6446
64.000000	70.689	-174.2879
65.000000	70.660	-174.9141
66.000000	70.630	-175.5228
67.000000	70.599	-176.1142
68.000000	70.566	-176.6899
69.000000	70.530	-177.2509
70.000000	70.492	-177.7971
71.000000	70.455	-178.3291
72.000000	70.420	-178.8467
73.000000	70.386	-179.3497
74.000000	70.351	-179.8392
75.000000	70.315	179.6840
76.199997	70.271	179.1291
77.500000	70.221	178.5488
78.800003	70.171	177.9886
80.000000	70.124	177.4915
81.199997	70.077	177.0152
82.500000	70.026	176.5225
83.800003	69.977	176.0544
85.000000	69.932	175.6420
86.199997	69.887	175.2456
87.500000	69.837	174.8352
88.500000	69.798	174.5346
90.000000	69.743	174.1070
91.199997	69.701	173.7784
92.500000	69.661	173.4247
93.800003	69.622	173.0645
95.000000	69.585	172.7264
96.199997	69.547	172.3887
97.500000	69.503	172.0281
98.800003	69.458	171.6729
100.000000	69.417	171.3477
101.500000	69.368	170.9443
103.000000	69.321	170.5459
104.400002	69.274	170.1834
106.000000	69.218	169.7867
107.500000	69.164	169.4337
109.000000	69.108	169.0986
110.599998	69.049	168.7592
112.000000	68.998	168.4749
113.800003	68.931	168.1250
115.000000	68.887	167.9015
117.199997	68.805	167.5123
118.000000	68.776	167.3771
120.599998	68.681	166.9582
122.000000	68.631	166.7451
124.099998	68.557	166.4426
125.000000	68.526	166.3188
126.500000	68.473	166.1197
128.000000	68.420	165.9294
131.500000	68.295	165.5192
132.000000	68.278	165.4646
134.000000	68.207	165.2555
136.000000	68.137	165.0602
138.000000	68.066	164.8786
140.000000	67.993	164.7120
143.000000	67.886	164.4908
145.000000	67.815	164.3625
147.500000	67.726	164.2279
150.000000	67.638	164.1264
152.500000	67.556	164.0616
155.000000	67.476	164.0345
157.500000	67.397	164.0393
160.000000	67.323	164.0630
162.500000	67.256	164.0932
165.000000	67.195	164.1180
167.500000	67.137	164.1310
170.000000	67.076	164.1370
172.500000	67.010	164.1539
175.000000	66.937	164.2093
177.500000	66.857	164.3346
180.000000	66.772	164.5580
182.500000	66.688	164.8954
185.000000	66.609	165.3336
187.500000	66.546	165.8186
190.000000	66.508	166.2592
192.500000	66.499	166.5577
195.000000	66.512	166.6567
197.500000	66.532	166.5628
200.000000	66.549	166.3347
203.000000	66.559	165.9888
206.000000	66.558	165.6474
209.000000	66.547	165.3494
212.000000	66.522	165.1075
214.000000	66.497	164.9783
218.000000	66.430	164.7924
220.000000	66.391	164.7318
224.000000	66.308	164.6608
227.000000	66.243	164.6427
230.000000	66.176	164.6489
233.000000	66.111	164.6754
236.000000	66.049	164.7202
240.000000	65.968	164.8060
243.000000	65.909	164.8860
247.000000	65.831	165.0066
250.000000	65.773	165.1050
254.000000	65.701	165.2464
258.000000	65.632	165.4005
262.000000	65.565	165.5667
265.000000	65.515	165.6988
269.000000	65.452	165.8837
272.000000	65.405	166.0278
276.000000	65.345	166.2251
280.000000	65.286	166.4279
285.000000	65.215	166.6904
290.000000	65.145	166.9631
295.000000	65.077	167.2450
300.000000	65.010	167.5370
304.000000	64.957	167.7782
307.000000	64.917	167.9630
311.000000	64.865	168.2144
315.000000	64.814	168.4713
320.000000	64.753	168.7970
325.000000	64.695	169.1224
330.000000	64.638	169.4478
335.000000	64.584	169.7809
340.000000	64.535	170.1261
345.000000	64.489	170.4831
350.000000	64.439	170.8501
355.000000	64.385	171.2246
360.000000	64.333	171.6060
365.000000	64.284	171.9965
370.000000	64.239	172.3986
375.000000	64.194	172.8134
382.000000	64.133	173.4166
387.000000	64.092	173.8679
395.000000	64.034	174.6411
400.000000	64.005	175.1637
406.000000	63.982	175.8226
412.000000	63.972	176.4773
418.000000	63.978	177.0643
425.000000	63.995	177.5990
431.000000	64.007	177.9266
437.000000	64.007	178.1762
444.000000	63.993	178.4377
450.000000	63.972	178.6774
455.000000	63.951	178.8994
462.000000	63.922	179.2452
468.000000	63.896	179.5697
475.000000	63.867	179.9746
482.000000	63.838	-179.5995
487.000000	63.817	-179.2873
494.000000	63.788	-178.8446
500.000000	63.765	-178.4634
508.000000	63.737	-177.9552
515.000000	63.715	-177.5095
522.000000	63.692	-177.0589
530.000000	63.665	-176.5327
538.000000	63.639	-175.9937
545.000000	63.618	-175.5130
552.000000	63.598	-175.0255
560.000000	63.580	-174.4620
570.000000	63.561	-173.7546
580.000000	63.545	-173.0513
590.000000	63.530	-172.3536
600.000000	63.516	-171.6567
608.000000	63.504	-171.0960
615.000000	63.495	-170.6028
622.000000	63.486	-170.1082
630.000000	63.479	-169.5421
640.000000	63.471	-168.8317
650.000000	63.467	-168.1157
660.000000	63.467	-167.3925
670.000000	63.470	-166.6622
680.000000	63.474	-165.9267
690.000000	63.479	-165.1900
700.000000	63.486	-164.4540
710.000000	63.496	-163.7212
720.000000	63.509	-162.9918
730.000000	63.524	-162.2632
740.000000	63.542	-161.5330
750.000000	63.562	-160.8003
762.000000	63.588	-159.9179
775.000000	63.618	-158.9564
788.000000	63.653	-157.9865
800.000000	63.691	-157.0843
812.000000	63.734	-156.1807
825.000000	63.786	-155.2112
838.000000	63.845	-154.2646
850.000000	63.903	-153.4207
862.000000	63.966	-152.6072
875.000000	64.039	-151.7545
885.000000	64.097	-151.1140
900.000000	64.186	-150.1747
912.000000	64.258	-149.4409
925.000000	64.339	-148.6649
938.000000	64.422	-147.9118
950.000000	64.502	-147.2397
962.000000	64.584	-146.5922
975.000000	64.676	-145.9205
988.000000	64.771	-145.2801
1000.000000	64.860	-144.7163
1015.000000	64.973	-144.0479
1030.000000	65.087	-143.4212
1044.000000	65.195	-142.8743
1060.000000	65.321	-142.2929
1075.000000	65.439	-141.7885
1090.000000	65.556	-141.3218
1106.000000	65.680	-140.8643
1120.000000	65.789	-140.4970
1138.000000	65.931	-140.0683
1150.000000	66.025	-139.8079
1172.000000	66.200	-139.3806
1180.000000	66.264	-139.2414
1206.000000	66.479	-138.8504
1220.000000	66.600	-138.6791
1241.000000	66.790	-138.4676
1250.000000	66.876	-138.3913
1265.000000	67.022	-138.2831
1280.000000	67.171	-138.2016
1315.000000	67.483	-138.1307
1320.000000	67.518	-138.1323
1340.000000	67.623	-138.1515
1360.000000	67.665	-138.1608
1380.000000	67.659	-138.1208
1400.000000	67.633	-138.0020
1430.000000	67.611	-137.6613
1450.000000	67.631	-137.3484
1475.000000	67.699	-136.9053
1500.000000	67.803	-136.4437
1525.000000	67.932	-135.9900
1550.000000	68.074	-135.5554
1575.000000	68.222	-135.1424
1600.000000	68.372	-134.7518
1625.000000	68.523	-134.3860
1650.000000	68.675	-134.0484
1675.000000	68.829	-133.7424
1700.000000	68.984	-133.4710
1725.000000	69.139	-133.2351
1750.000000	69.294	-133.0341
1775.000000	69.447	-132.8661
1800.000000	69.598	-132.7277
1825.000000	69.748	-132.6149
1850.000000	69.898	-132.5233
1875.000000	70.047	-132.4493
1900.000000	70.197	-132.3913
1925.000000	70.347	-132.3516
1950.000000	70.499	-132.3373
1975.000000	70.654	-132.3581
2000.000000	70.811	-132.4235
2030.000000	71.000	-132.5695
2060.000000	71.189	-132.7934
2090.000000	71.376	-133.0941
2120.000000	71.559	-133.4670
2140.000000	71.678	-133.7528
2180.000000	71.910	-134.4065
2200.000000	72.022	-134.7710
2240.000000	72.238	-135.5684
2270.000000	72.393	-136.2229
2300.000000	72.542	-136.9232
2330.000000	72.684	-137.6664
2360.000000	72.819	-138.4494
2400.000000	72.986	-139.5511
2430.000000	73.102	-140.4186
2470.000000	73.246	-141.6260
2500.000000	73.343	-142.5643
2540.000000	73.457	-143.8479
2580.000000	73.555	-145.1547
2620.000000	73.637	-146.4702
2650.000000	73.689	-147.4553
2690.000000	73.745	-148.7575
2720.000000	73.778	-149.7199
2760.000000	73.811	-150.9771
2800.000000	73.834	-152.1984
2850.000000	73.848	-153.6653
2900.000000	73.850	-155.0555
2950.000000	73.839	-156.3605
3000.000000	73.816	-157.5758
3040.000000	73.792	-158.4834
3070.000000	73.770	-159.1269
3110.000000	73.740	-159.9361
3150.000000	73.709	-160.6908
3200.000000	73.670	-161.5604
3250.000000	73.633	-162.3524
3300.000000	73.596	-163.0724
3350.000000	73.559	-163.7288
3400.000000	73.522	-164.3324
3450.000000	73.484	-164.8941
3500.000000	73.446	-165.4244
3550.000000	73.410	-165.9328
3600.000000	73.379	-166.4270
3650.000000	73.357	-166.9132
3700.000000	73.347	-167.3957
3750.000000	73.352	-167.8781
3820.000000	73.379	-168.5629
3870.000000	73.411	-169.0702
3950.000000	73.471	-169.9419
4000.000000	73.507	-170.5402
4060.000000	73.542	-171.3260
4120.000000	73.560	-172.1924
4180.000000	73.559	-173.1390
4250.000000	73.534	-174.3385
4310.000000	73.496	-175.4423
4370.000000	73.450	-176.6146
4440.000000	73.393	-178.0711
4500.000000	73.345	-179.3954
4550.000000	73.305	179.4507
4620.000000	73.241	177.7715
4680.000000	73.171	176.2951
4750.000000	73.064	174.5659
4820.000000	72.923	172.8685
4870.000000	72.800	171.6987
4940.000000	72.596	170.1541
5000.000000	72.396	168.9442
5080.000000	72.095	167.5342
5150.000000	71.804	166.5165
5220.000000	71.494	165.7128
5300.000000	71.121	165.0605
5380.000000	70.735	164.6882
5450.000000	70.390	164.5870
5520.000000	70.047	164.6926
5600.000000	69.668	165.0540
5700.000000	69.225	165.7919
5800.000000	68.821	166.7412
5900.000000	68.452	167.8664
6000.000000	68.113	169.1831
6080.000000	67.857	170.3827
6150.000000	67.642	171.5348
6220.000000	67.435	172.7738
6300.000000	67.210	174.2830
6400.000000	66.952	176.2842
6500.000000	66.727	178.3805
6600.000000	66.538	-179.4625
6700.000000	66.390	-177.2812
6800.000000	66.284	-175.1131
6900.000000	66.219	-172.9925
7000.000000	66.187	-170.9373
7100.000000	66.187	-168.9324
7200.000000	66.225	-166.9290
7300.000000	66.312	-164.8730
7400.000000	66.465	-162.7583
7500.000000	66.703	-160.6582
7620.000000	67.103	-158.3441
7750.000000	67.637	-156.3582
7880.000000	68.200	-155.1897
8000.000000	68.700	-155.0512
8120.000000	69.160	-155.9839
8250.000000	69.596	-158.3220
8380.000000	69.939	-162.0265
8500.000000	70.137	-166.4745
8620.000000	70.179	-171.5725
8750.000000	70.017	-177.3135
8850.000000	69.741	178.4796
9000.000000	69.108	173.0656
9120.000000	68.459	169.8021
9250.000000	67.671	167.4707
9380.000000	66.853	166.3518
9500.000000	66.119	166.2747
9620.000000	65.439	166.9676
9750.000000	64.786	168.4158
9880.000000	64.233	170.4171
10000.000000	63.816	172.6193
10150.000000	63.427	175.6792
10300.000000	63.181	178.8997
10440.000000	63.078	-178.1131
10600.000000	63.111	-174.9225
10750.000000	63.292	-172.3630
10900.000000	63.619	-170.4736
11060.000000	64.111	-169.5260
11200.000000	64.625	-169.8917
11380.000000	65.317	-172.3522
11500.000000	65.731	-175.3305
11720.000000	66.222	176.6997
11800.000000	66.273	173.2086
12060.000000	65.851	161.3003
12200.000000	65.258	155.4894
12410.000000	64.003	148.7542
12500.000000	63.376	146.7523
12650.000000	62.275	144.6196
12800.000000	61.151	143.8766
13150.000000	58.612	146.2507
13200.000000	58.265	146.9229
13400.000000	56.928	150.1323
13600.000000	55.718	153.8776
13800.000000	54.701	157.8772
14000.000000	53.909	161.9485
14300.000000	53.135	167.8626
14500.000000	52.862	171.3769
14750.000000	52.724	174.7811
15000.000000	52.695	176.5730
15250.000000	52.619	176.4761
15500.000000	52.336	174.6497
15750.000000	51.752	171.7242
16000.000000	50.878	168.6704
16250.000000	49.799	166.5075
16500.000000	48.631	165.9972
16750.000000	47.488	167.4695
17000.000000	46.473	170.7989
17250.000000	45.657	175.5276
17500.000000	45.083	-178.9900
17750.000000	44.772	-173.5161
18000.000000	44.705	-168.8308
18250.000000	44.800	-165.5824
18500.000000	44.923	-164.1124
18750.000000	44.929	-164.3602
19000.000000	44.709	-165.8975
19250.000000	44.203	-168.0800
19500.000000	43.424	-170.2411
19750.000000	42.530	-171.8544
20000.000000	41.907	-172.6493
