* Measurement data measured by REW V5.31.3
* Source: Microphone (USB Sound Device        ), MICROPHONE (Master Volume), L, volume: 0.700
* Format: 256k Log Swept Sine, 1 sweep at -12.0 dBFS with no timing reference
* Dated: 29-Jan-2025 17:51:12
* REW Settings:
*  C-weighting compensation: Off
*  Target level: 75.0 dB
* Note: 
* Measurement: Dunu Falcon Ultra B R
* Smoothing: 1/12 octave
* Frequency Step: 1/48 octave
* Start Frequency: 20.300 Hz
*
* Freq(Hz)	SPL(dB)	Phase(degrees)
20.299999	68.812	-115.1060
20.600000	68.868	-115.7063
20.900000	68.937	-116.4553
21.200001	69.010	-117.2538
21.400000	69.058	-117.7943
21.799999	69.152	-118.8767
22.000000	69.197	-119.4144
22.400000	69.287	-120.4752
22.700001	69.353	-121.2535
23.000000	69.417	-122.0150
23.299999	69.480	-122.7603
23.600000	69.542	-123.4915
24.000000	69.619	-124.4491
24.299999	69.674	-125.1571
24.700001	69.744	-126.0896
25.000000	69.794	-126.7805
25.400000	69.858	-127.6895
25.799999	69.920	-128.5835
26.200001	69.980	-129.4620
26.500000	70.023	-130.1105
26.900000	70.078	-130.9612
27.200001	70.117	-131.5889
27.600000	70.167	-132.4125
28.000000	70.215	-133.2218
28.500000	70.272	-134.2150
29.000000	70.325	-135.1896
29.500000	70.376	-136.1463
30.000000	70.424	-137.0848
30.400000	70.460	-137.8221
30.700001	70.485	-138.3673
31.100000	70.518	-139.0839
31.500000	70.549	-139.7889
32.000000	70.587	-140.6543
32.500000	70.624	-141.5021
33.000000	70.659	-142.3331
33.500000	70.692	-143.1484
34.000000	70.722	-143.9495
34.500000	70.751	-144.7367
35.000000	70.776	-145.5097
35.500000	70.800	-146.2681
36.000000	70.821	-147.0129
36.500000	70.843	-147.7456
37.000000	70.863	-148.4668
37.500000	70.881	-149.1765
38.200001	70.902	-150.1503
38.700001	70.914	-150.8321
39.500000	70.931	-151.8988
40.000000	70.939	-152.5493
40.599998	70.949	-153.3127
41.200001	70.959	-154.0590
41.799999	70.970	-154.7911
42.500000	70.981	-155.6290
43.099998	70.989	-156.3328
43.700001	70.994	-157.0230
44.400002	70.998	-157.8110
45.000000	71.000	-158.4722
45.500000	71.000	-159.0138
46.200001	70.998	-159.7594
46.799999	70.995	-160.3863
47.500000	70.994	-161.1009
48.200001	70.997	-161.7971
48.700001	71.001	-162.2855
49.400002	71.006	-162.9601
50.000000	71.005	-163.5303
50.799999	70.991	-164.2752
51.500000	70.972	-164.9107
52.200001	70.953	-165.5317
53.000000	70.933	-166.2264
53.799999	70.915	-166.9071
54.500000	70.899	-167.4913
55.200001	70.883	-168.0641
56.000000	70.865	-168.7050
57.000000	70.841	-169.4857
58.000000	70.816	-170.2437
59.000000	70.789	-170.9796
60.000000	70.762	-171.6945
60.799999	70.740	-172.2521
61.500000	70.721	-172.7303
62.200001	70.701	-173.1994
63.000000	70.679	-173.7242
64.000000	70.650	-174.3641
65.000000	70.620	-174.9875
66.000000	70.590	-175.5956
67.000000	70.559	-176.1886
68.000000	70.526	-176.7660
69.000000	70.491	-177.3280
70.000000	70.453	-177.8752
71.000000	70.415	-178.4074
72.000000	70.380	-178.9247
73.000000	70.345	-179.4270
74.000000	70.311	-179.9142
75.000000	70.275	179.6131
76.199997	70.231	179.0631
77.500000	70.181	178.4865
78.800003	70.130	177.9312
80.000000	70.082	177.4406
81.199997	70.035	176.9719
82.500000	69.985	176.4864
83.800003	69.937	176.0231
85.000000	69.893	175.6122
86.199997	69.848	175.2158
87.500000	69.798	174.8080
88.500000	69.760	174.5115
90.000000	69.705	174.0895
91.199997	69.665	173.7643
92.500000	69.626	173.4124
93.800003	69.589	173.0482
95.000000	69.553	172.7014
96.199997	69.515	172.3535
97.500000	69.471	171.9798
98.800003	69.426	171.6091
100.000000	69.384	171.2707
101.500000	69.333	170.8558
103.000000	69.284	170.4539
104.400002	69.236	170.0938
106.000000	69.179	169.7021
107.500000	69.124	169.3540
109.000000	69.068	169.0220
110.599998	69.009	168.6837
112.000000	68.957	168.4010
113.800003	68.891	168.0542
115.000000	68.846	167.8327
117.199997	68.764	167.4455
118.000000	68.735	167.3105
120.599998	68.640	166.8946
122.000000	68.589	166.6844
124.099998	68.513	166.3844
125.000000	68.481	166.2609
126.500000	68.427	166.0620
128.000000	68.373	165.8723
131.500000	68.249	165.4679
132.000000	68.231	165.4143
134.000000	68.160	165.2092
136.000000	68.089	165.0175
138.000000	68.016	164.8397
140.000000	67.943	164.6770
143.000000	67.834	164.4626
145.000000	67.761	164.3407
147.500000	67.670	164.2190
150.000000	67.580	164.1359
152.500000	67.494	164.0931
155.000000	67.411	164.0935
157.500000	67.331	164.1321
160.000000	67.256	164.1945
162.500000	67.189	164.2634
165.000000	67.129	164.3259
167.500000	67.070	164.3783
170.000000	67.009	164.4297
172.500000	66.943	164.5060
175.000000	66.872	164.6455
177.500000	66.799	164.8847
180.000000	66.728	165.2415
182.500000	66.670	165.6974
185.000000	66.629	166.1829
187.500000	66.610	166.5895
190.000000	66.607	166.8128
192.500000	66.614	166.8091
195.000000	66.620	166.6108
197.500000	66.618	166.2950
200.000000	66.608	165.9436
203.000000	66.587	165.5541
206.000000	66.564	165.2339
209.000000	66.537	164.9843
212.000000	66.501	164.7983
214.000000	66.472	164.7054
218.000000	66.401	164.5824
220.000000	66.361	164.5483
224.000000	66.276	164.5213
227.000000	66.210	164.5284
230.000000	66.144	164.5547
233.000000	66.079	164.5979
236.000000	66.016	164.6561
240.000000	65.936	164.7541
243.000000	65.877	164.8391
247.000000	65.799	164.9640
250.000000	65.742	165.0657
254.000000	65.670	165.2114
258.000000	65.601	165.3687
262.000000	65.534	165.5385
265.000000	65.485	165.6736
269.000000	65.421	165.8618
272.000000	65.374	166.0076
276.000000	65.314	166.2078
280.000000	65.255	166.4156
285.000000	65.184	166.6846
290.000000	65.113	166.9610
295.000000	65.044	167.2447
300.000000	64.977	167.5362
304.000000	64.923	167.7758
307.000000	64.883	167.9603
311.000000	64.831	168.2125
315.000000	64.780	168.4702
320.000000	64.718	168.7951
325.000000	64.659	169.1217
330.000000	64.603	169.4545
335.000000	64.549	169.7965
340.000000	64.500	170.1485
345.000000	64.453	170.5096
350.000000	64.403	170.8798
355.000000	64.349	171.2590
360.000000	64.296	171.6470
365.000000	64.246	172.0456
370.000000	64.200	172.4577
375.000000	64.154	172.8864
382.000000	64.093	173.5175
387.000000	64.053	173.9936
395.000000	64.000	174.8096
400.000000	63.977	175.3528
406.000000	63.963	176.0155
412.000000	63.964	176.6371
418.000000	63.976	177.1544
425.000000	63.993	177.5916
431.000000	63.999	177.8551
437.000000	63.992	178.0732
444.000000	63.969	178.3317
450.000000	63.943	178.5831
455.000000	63.920	178.8173
462.000000	63.888	179.1790
468.000000	63.861	179.5147
475.000000	63.830	179.9301
482.000000	63.801	-179.6371
487.000000	63.780	-179.3215
494.000000	63.750	-178.8752
500.000000	63.727	-178.4907
508.000000	63.699	-177.9766
515.000000	63.676	-177.5241
522.000000	63.653	-177.0670
530.000000	63.626	-176.5346
538.000000	63.600	-175.9889
545.000000	63.577	-175.5024
552.000000	63.558	-175.0107
560.000000	63.540	-174.4449
570.000000	63.521	-173.7362
580.000000	63.505	-173.0324
590.000000	63.491	-172.3347
600.000000	63.476	-171.6372
608.000000	63.464	-171.0747
615.000000	63.455	-170.5800
622.000000	63.447	-170.0842
630.000000	63.440	-169.5169
640.000000	63.433	-168.8057
650.000000	63.429	-168.0889
660.000000	63.429	-167.3634
670.000000	63.432	-166.6305
680.000000	63.436	-165.8939
690.000000	63.441	-165.1570
700.000000	63.448	-164.4223
710.000000	63.459	-163.6904
720.000000	63.472	-162.9609
730.000000	63.487	-162.2319
740.000000	63.505	-161.5020
750.000000	63.525	-160.7690
762.000000	63.551	-159.8845
775.000000	63.581	-158.9213
788.000000	63.616	-157.9506
800.000000	63.653	-157.0478
812.000000	63.696	-156.1438
825.000000	63.748	-155.1745
838.000000	63.807	-154.2271
850.000000	63.866	-153.3800
862.000000	63.929	-152.5620
875.000000	64.001	-151.7056
885.000000	64.059	-151.0638
900.000000	64.148	-150.1234
912.000000	64.221	-149.3890
925.000000	64.302	-148.6123
938.000000	64.386	-147.8582
950.000000	64.466	-147.1852
962.000000	64.548	-146.5375
975.000000	64.640	-145.8662
988.000000	64.734	-145.2265
1000.000000	64.824	-144.6637
1015.000000	64.936	-143.9971
1030.000000	65.050	-143.3712
1044.000000	65.157	-142.8235
1060.000000	65.283	-142.2404
1075.000000	65.401	-141.7348
1090.000000	65.518	-141.2675
1106.000000	65.642	-140.8094
1120.000000	65.751	-140.4410
1138.000000	65.892	-140.0094
1150.000000	65.987	-139.7467
1172.000000	66.161	-139.3153
1180.000000	66.226	-139.1745
1206.000000	66.441	-138.7787
1220.000000	66.562	-138.6044
1241.000000	66.753	-138.3884
1250.000000	66.838	-138.3108
1265.000000	66.985	-138.2009
1280.000000	67.134	-138.1186
1315.000000	67.447	-138.0456
1320.000000	67.482	-138.0465
1340.000000	67.586	-138.0618
1360.000000	67.629	-138.0661
1380.000000	67.624	-138.0206
1400.000000	67.598	-137.8960
1430.000000	67.577	-137.5478
1450.000000	67.597	-137.2303
1475.000000	67.665	-136.7812
1500.000000	67.771	-136.3141
1525.000000	67.900	-135.8551
1550.000000	68.042	-135.4139
1575.000000	68.190	-134.9938
1600.000000	68.340	-134.5974
1625.000000	68.493	-134.2262
1650.000000	68.646	-133.8822
1675.000000	68.801	-133.5688
1700.000000	68.956	-133.2890
1725.000000	69.112	-133.0446
1750.000000	69.268	-132.8354
1775.000000	69.422	-132.6588
1800.000000	69.575	-132.5126
1825.000000	69.727	-132.3943
1850.000000	69.878	-132.2999
1875.000000	70.030	-132.2247
1900.000000	70.181	-132.1662
1925.000000	70.333	-132.1266
1950.000000	70.486	-132.1131
1975.000000	70.641	-132.1349
2000.000000	70.799	-132.2014
2030.000000	70.989	-132.3491
2060.000000	71.179	-132.5754
2090.000000	71.367	-132.8790
2120.000000	71.550	-133.2552
2140.000000	71.670	-133.5432
2180.000000	71.901	-134.2001
2200.000000	72.013	-134.5654
2240.000000	72.229	-135.3630
2270.000000	72.384	-136.0153
2300.000000	72.533	-136.7106
2330.000000	72.676	-137.4464
2360.000000	72.811	-138.2210
2400.000000	72.979	-139.3119
2430.000000	73.096	-140.1722
2470.000000	73.241	-141.3719
2500.000000	73.339	-142.3061
2540.000000	73.455	-143.5854
2580.000000	73.554	-144.8882
2620.000000	73.638	-146.2007
2650.000000	73.691	-147.1839
2690.000000	73.749	-148.4846
2720.000000	73.783	-149.4469
2760.000000	73.817	-150.7059
2800.000000	73.841	-151.9311
2850.000000	73.857	-153.4045
2900.000000	73.859	-154.8031
2950.000000	73.849	-156.1186
3000.000000	73.826	-157.3452
3040.000000	73.801	-158.2603
3070.000000	73.780	-158.9082
3110.000000	73.749	-159.7221
3150.000000	73.717	-160.4806
3200.000000	73.677	-161.3530
3250.000000	73.639	-162.1444
3300.000000	73.602	-162.8613
3350.000000	73.565	-163.5144
3400.000000	73.527	-164.1155
3450.000000	73.488	-164.6761
3500.000000	73.449	-165.2062
3550.000000	73.412	-165.7141
3600.000000	73.379	-166.2055
3650.000000	73.355	-166.6843
3700.000000	73.343	-167.1526
3750.000000	73.345	-167.6130
3820.000000	73.371	-168.2575
3870.000000	73.402	-168.7325
3950.000000	73.463	-169.5537
4000.000000	73.501	-170.1230
4060.000000	73.537	-170.8760
4120.000000	73.558	-171.7081
4180.000000	73.559	-172.6156
4250.000000	73.538	-173.7645
4310.000000	73.506	-174.8271
4370.000000	73.466	-175.9666
4440.000000	73.418	-177.3985
4500.000000	73.377	-178.7104
4550.000000	73.343	-179.8564
4620.000000	73.286	178.4759
4680.000000	73.222	177.0105
4750.000000	73.121	175.2949
4820.000000	72.986	173.6127
4870.000000	72.868	172.4551
4940.000000	72.673	170.9279
5000.000000	72.481	169.7306
5080.000000	72.194	168.3271
5150.000000	71.916	167.2985
5220.000000	71.619	166.4670
5300.000000	71.260	165.7651
5380.000000	70.886	165.3318
5450.000000	70.549	165.1746
5520.000000	70.213	165.2262
5600.000000	69.841	165.5316
5700.000000	69.408	166.2118
5800.000000	69.012	167.1153
5900.000000	68.655	168.2017
6000.000000	68.330	169.4784
6080.000000	68.088	170.6375
6150.000000	67.888	171.7427
6220.000000	67.696	172.9204
6300.000000	67.489	174.3378
6400.000000	67.255	176.1872
6500.000000	67.052	178.0890
6600.000000	66.883	-179.9916
6700.000000	66.752	-178.0901
6800.000000	66.659	-176.2436
6900.000000	66.600	-174.4844
7000.000000	66.568	-172.8273
7100.000000	66.559	-171.2558
7200.000000	66.576	-169.7180
7300.000000	66.628	-168.1505
7400.000000	66.729	-166.5252
7500.000000	66.896	-164.8845
7620.000000	67.190	-163.0352
7750.000000	67.585	-161.3931
7880.000000	67.995	-160.3496
8000.000000	68.344	-160.0886
8120.000000	68.649	-160.6332
8250.000000	68.927	-162.2250
8380.000000	69.142	-164.8549
8500.000000	69.266	-168.0838
8620.000000	69.289	-171.8647
8750.000000	69.171	-176.2424
8850.000000	68.969	-179.5533
9000.000000	68.487	176.0012
9120.000000	67.973	173.1598
9250.000000	67.325	170.9755
9380.000000	66.629	169.7697
9500.000000	65.986	169.4876
9620.000000	65.377	169.9191
9750.000000	64.781	171.0692
9880.000000	64.267	172.7875
10000.000000	63.876	174.7544
10150.000000	63.508	177.5600
10300.000000	63.276	-179.4298
10440.000000	63.182	-176.6015
10600.000000	63.222	-173.5541
10750.000000	63.410	-171.1012
10900.000000	63.743	-169.3006
11060.000000	64.242	-168.4359
11200.000000	64.764	-168.8736
11380.000000	65.465	-171.4374
11500.000000	65.884	-174.4929
11720.000000	66.380	177.3863
11800.000000	66.430	173.8416
12060.000000	65.999	161.7904
12200.000000	65.398	155.9338
12410.000000	64.131	149.1755
12500.000000	63.501	147.1773
12650.000000	62.394	145.0620
12800.000000	61.267	144.3433
13150.000000	58.730	146.7716
13200.000000	58.384	147.4504
13400.000000	57.055	150.6809
13600.000000	55.856	154.4370
13800.000000	54.851	158.4380
14000.000000	54.073	162.5024
14300.000000	53.318	168.3929
14500.000000	53.059	171.8862
14750.000000	52.939	175.2666
15000.000000	52.934	177.0279
15250.000000	52.888	176.8626
15500.000000	52.638	174.8997
15750.000000	52.089	171.7426
16000.000000	51.242	168.3638
16250.000000	50.176	165.8170
16500.000000	49.003	164.8989
16750.000000	47.843	165.9613
17000.000000	46.796	168.8789
17250.000000	45.932	173.1821
17500.000000	45.279	178.2682
17750.000000	44.856	-176.4674
18000.000000	44.664	-171.6400
18250.000000	44.658	-167.8974
18500.000000	44.724	-165.7557
18750.000000	44.719	-165.3556
19000.000000	44.516	-166.3743
19250.000000	44.037	-168.1711
19500.000000	43.287	-170.0328
19750.000000	42.418	-171.4007
20000.000000	41.810	-172.0412
