* Measurement data measured by REW V5.20.13
* Source: Microphone (2- USB Audio Device), MICROPHONE (Master Volume), L, volume: 0.250. Timing signal peak level -29.9 dBFS, measurement signal peak level -30.2 dBFS
* Format: 256k Log Swept Sine, 1 sweep at -12.0 dBFS using an acoustic timing reference
* Dated: 04-May-2023 12:46:36
* REW Settings:
*  C-weighting compensation: Off
*  Target level: 75.0 dB
* Note: 
* Measurement: Edifier NeoBuds Pro L
* Smoothing: 1/12 octave
* Frequency Step: 1/48 octave
* Start Frequency: 20.000 Hz
*
* Freq(Hz)	SPL(dB)	Phase(degrees)
20.000000	67.270	-78.5900
20.299999	67.396	-78.1241
20.600000	67.507	-77.6753
20.900000	67.606	-77.2724
21.200001	67.692	-76.9404
21.400000	67.744	-76.7654
21.799999	67.834	-76.5288
22.000000	67.876	-76.4685
22.400000	67.961	-76.4668
22.700001	68.028	-76.5748
23.000000	68.102	-76.7793
23.299999	68.183	-77.0704
23.600000	68.270	-77.4268
24.000000	68.396	-77.9562
24.299999	68.498	-78.3543
24.700001	68.647	-78.8479
25.000000	68.769	-79.1769
25.400000	68.942	-79.5578
25.799999	69.123	-79.8776
26.200001	69.304	-80.1399
26.500000	69.434	-80.2989
26.900000	69.596	-80.4590
27.200001	69.707	-80.5400
27.600000	69.840	-80.5999
28.000000	69.957	-80.6188
28.500000	70.084	-80.6256
29.000000	70.189	-80.6712
29.500000	70.272	-80.7909
30.000000	70.335	-80.9801
30.400000	70.375	-81.1634
30.700001	70.401	-81.3122
31.100000	70.435	-81.5223
31.500000	70.470	-81.7431
32.000000	70.517	-82.0229
32.500000	70.567	-82.2796
33.000000	70.620	-82.4802
33.500000	70.674	-82.6064
34.000000	70.727	-82.6557
34.500000	70.777	-82.6316
35.000000	70.817	-82.5343
35.500000	70.847	-82.3583
36.000000	70.867	-82.0999
36.500000	70.880	-81.7653
37.000000	70.889	-81.3735
37.500000	70.895	-80.9470
38.200001	70.900	-80.3270
38.700001	70.901	-79.8818
39.500000	70.903	-79.1686
40.000000	70.902	-78.7086
40.599998	70.902	-78.1203
41.200001	70.902	-77.4761
41.799999	70.904	-76.7667
42.500000	70.910	-75.8467
43.099998	70.919	-74.9903
43.700001	70.936	-74.1144
44.400002	70.958	-73.1180
45.000000	70.975	-72.2836
45.500000	70.987	-71.5775
46.200001	71.003	-70.5544
46.799999	71.023	-69.6575
47.500000	71.052	-68.6112
48.200001	71.086	-67.5650
48.700001	71.112	-66.8099
49.400002	71.146	-65.7324
50.000000	71.169	-64.7869
50.799999	71.192	-63.4973
51.500000	71.208	-62.3509
52.200001	71.226	-61.2016
53.000000	71.256	-59.8988
53.799999	71.293	-58.6090
54.500000	71.332	-57.4838
55.200001	71.375	-56.3645
56.000000	71.427	-55.1099
57.000000	71.487	-53.5767
58.000000	71.536	-52.0383
59.000000	71.581	-50.4999
60.000000	71.625	-49.0160
60.799999	71.657	-47.8809
61.500000	71.682	-46.9151
62.200001	71.704	-45.9634
63.000000	71.726	-44.8833
64.000000	71.749	-43.5357
65.000000	71.764	-42.1790
66.000000	71.773	-40.8031
67.000000	71.776	-39.4163
68.000000	71.772	-38.0387
69.000000	71.755	-36.6705
70.000000	71.726	-35.2914
71.000000	71.688	-33.8820
72.000000	71.641	-32.4289
73.000000	71.588	-30.9246
74.000000	71.530	-29.3722
75.000000	71.468	-27.7811
76.199997	71.387	-25.8294
77.500000	71.289	-23.6550
78.800003	71.180	-21.4120
80.000000	71.066	-19.2695
81.199997	70.943	-17.0393
82.500000	70.807	-14.5370
83.800003	70.672	-11.9757
85.000000	70.546	-9.5725
86.199997	70.413	-7.1087
87.500000	70.262	-4.3273
88.500000	70.144	-2.1028
90.000000	69.971	1.3384
91.199997	69.841	4.1523
92.500000	69.705	7.2381
93.800003	69.570	10.3669
95.000000	69.441	13.3173
96.199997	69.308	16.3395
97.500000	69.162	19.6859
98.800003	69.017	23.0877
100.000000	68.887	26.2651
101.500000	68.734	30.2856
103.000000	68.592	34.3502
104.400002	68.461	38.1796
106.000000	68.307	42.6262
107.500000	68.163	46.8771
109.000000	68.026	51.1831
110.599998	67.892	55.8033
112.000000	67.784	59.8605
113.800003	67.652	65.0980
115.000000	67.564	68.6032
117.199997	67.398	75.0682
118.000000	67.339	77.4355
120.599998	67.165	85.1731
122.000000	67.084	89.3656
124.099998	66.966	95.7302
125.000000	66.915	98.4916
126.500000	66.827	103.1228
128.000000	66.737	107.7606
131.500000	66.538	118.5396
132.000000	66.512	120.0825
134.000000	66.414	126.2928
136.000000	66.326	132.5623
138.000000	66.242	138.8592
140.000000	66.161	145.1550
143.000000	66.045	154.5598
145.000000	65.972	160.8129
147.500000	65.885	168.6484
150.000000	65.805	176.5441
152.500000	65.728	-175.4854
155.000000	65.648	-167.4801
157.500000	65.568	-159.4879
160.000000	65.495	-151.4888
162.500000	65.430	-143.4398
165.000000	65.368	-135.3443
167.500000	65.306	-127.2468
170.000000	65.249	-119.1824
172.500000	65.192	-111.1235
175.000000	65.135	-103.0215
177.500000	65.075	-94.8611
180.000000	65.014	-86.6363
182.500000	64.948	-78.3410
185.000000	64.871	-70.0030
187.500000	64.779	-61.6606
190.000000	64.677	-53.3246
192.500000	64.580	-44.9996
195.000000	64.499	-36.6871
197.500000	64.435	-28.3677
200.000000	64.385	-20.0175
203.000000	64.339	-9.9495
206.000000	64.309	0.1530
209.000000	64.291	10.2764
212.000000	64.275	20.4392
214.000000	64.260	27.2476
218.000000	64.220	40.9229
220.000000	64.197	47.7700
224.000000	64.140	61.4579
227.000000	64.090	71.7208
230.000000	64.036	82.0011
233.000000	63.984	92.3250
236.000000	63.937	102.7049
240.000000	63.882	116.6241
243.000000	63.841	127.1013
247.000000	63.792	141.0972
250.000000	63.765	151.6204
254.000000	63.743	165.6868
258.000000	63.732	179.7607
262.000000	63.727	-166.1920
265.000000	63.726	-155.6815
269.000000	63.728	-141.6988
272.000000	63.732	-131.2317
276.000000	63.738	-117.2817
280.000000	63.742	-103.2949
285.000000	63.741	-85.7032
290.000000	63.735	-68.0108
295.000000	63.725	-50.3094
300.000000	63.709	-32.6361
304.000000	63.696	-18.4875
307.000000	63.690	-7.8608
311.000000	63.686	6.3272
315.000000	63.680	20.5381
320.000000	63.664	38.3458
325.000000	63.645	56.2080
330.000000	63.633	74.1356
335.000000	63.632	92.1329
340.000000	63.638	110.1613
345.000000	63.647	128.1730
350.000000	63.648	146.1703
355.000000	63.643	164.2039
360.000000	63.640	-177.6826
365.000000	63.642	-159.4817
370.000000	63.649	-141.2384
375.000000	63.659	-123.0122
382.000000	63.670	-97.5322
387.000000	63.675	-79.3342
395.000000	63.685	-50.2048
400.000000	63.693	-31.9917
406.000000	63.699	-10.0909
412.000000	63.703	11.9397
418.000000	63.709	34.1228
425.000000	63.717	60.1350
431.000000	63.725	82.5013
437.000000	63.734	104.8927
444.000000	63.744	130.9948
450.000000	63.749	153.3572
455.000000	63.749	172.0157
462.000000	63.753	-161.7825
468.000000	63.761	-139.2423
475.000000	63.769	-112.8822
482.000000	63.763	-86.4797
487.000000	63.750	-67.6082
494.000000	63.724	-41.1843
500.000000	63.702	-18.5179
508.000000	63.678	11.7712
515.000000	63.657	38.3481
522.000000	63.633	64.9851
530.000000	63.605	95.4910
538.000000	63.580	126.0768
545.000000	63.559	152.9233
552.000000	63.538	179.8409
560.000000	63.510	-149.3380
570.000000	63.468	-110.7501
580.000000	63.426	-72.1172
590.000000	63.384	-33.4219
600.000000	63.338	5.3647
608.000000	63.300	36.4398
615.000000	63.269	63.6528
622.000000	63.241	90.9060
630.000000	63.210	122.1404
640.000000	63.175	161.3311
650.000000	63.146	-159.3528
660.000000	63.125	-119.9084
670.000000	63.106	-80.3225
680.000000	63.084	-40.6592
690.000000	63.063	-0.9341
700.000000	63.048	38.8884
710.000000	63.038	78.7815
720.000000	63.028	118.7141
730.000000	63.017	158.6646
740.000000	63.007	-161.3569
750.000000	62.998	-121.2998
762.000000	62.994	-73.0540
775.000000	62.999	-20.5237
788.000000	63.013	32.2288
800.000000	63.035	81.0269
812.000000	63.066	129.8840
825.000000	63.099	-177.0652
838.000000	63.123	-123.8574
850.000000	63.146	-74.6272
862.000000	63.181	-25.3135
875.000000	63.233	28.1746
885.000000	63.279	69.3477
900.000000	63.346	131.1372
912.000000	63.398	-179.4119
925.000000	63.456	-125.7947
938.000000	63.524	-72.0835
950.000000	63.593	-22.4102
962.000000	63.666	27.3376
975.000000	63.748	81.3081
988.000000	63.836	135.3569
1000.000000	63.919	-174.7007
1015.000000	64.017	-112.2339
1030.000000	64.106	-49.7324
1044.000000	64.192	8.6418
1060.000000	64.299	75.3975
1075.000000	64.397	138.0107
1090.000000	64.482	-159.3315
1106.000000	64.565	-92.3809
1120.000000	64.639	-33.6240
1138.000000	64.733	42.1807
1150.000000	64.792	92.8320
1172.000000	64.900	-174.1387
1180.000000	64.942	-140.2476
1206.000000	65.083	-29.8745
1220.000000	65.159	29.6860
1241.000000	65.268	119.2031
1250.000000	65.316	157.6294
1265.000000	65.399	-138.2461
1280.000000	65.486	-74.0171
1315.000000	65.658	76.2466
1320.000000	65.674	97.7529
1340.000000	65.703	-176.1025
1360.000000	65.681	-89.7363
1380.000000	65.625	-3.1553
1400.000000	65.555	83.5986
1430.000000	65.467	-145.9189
1450.000000	65.442	-58.6328
1475.000000	65.454	50.8540
1500.000000	65.496	160.7539
1525.000000	65.548	-89.0107
1550.000000	65.605	21.4512
1575.000000	65.667	132.0898
1600.000000	65.730	-117.0732
1625.000000	65.792	-5.9805
1650.000000	65.861	105.3447
1675.000000	65.933	-143.1875
1700.000000	66.002	-31.6396
1725.000000	66.068	79.9658
1750.000000	66.134	-168.3442
1775.000000	66.198	-56.5601
1800.000000	66.260	55.3174
1825.000000	66.320	167.3135
1850.000000	66.376	-80.5303
1875.000000	66.427	31.8120
1900.000000	66.474	144.3306
1925.000000	66.519	-103.0068
1950.000000	66.558	9.7812
1975.000000	66.591	122.7158
2000.000000	66.620	-124.1567
2030.000000	66.644	11.9043
2060.000000	66.658	148.3301
2090.000000	66.666	-74.9014
2120.000000	66.669	62.2178
2140.000000	66.671	153.8398
2180.000000	66.683	-22.4482
2200.000000	66.700	69.5938
2240.000000	66.757	-106.0332
2270.000000	66.812	32.4297
2300.000000	66.868	170.9922
2330.000000	66.928	-50.3262
2360.000000	67.003	88.5381
2400.000000	67.132	-85.9404
2430.000000	67.244	53.4932
2470.000000	67.400	-120.2842
2500.000000	67.519	19.5410
2540.000000	67.675	-153.9180
2580.000000	67.821	32.6250
2620.000000	67.951	-140.9463
2650.000000	68.035	-1.1943
2690.000000	68.134	-174.8438
2720.000000	68.201	-35.0020
2760.000000	68.278	151.5713
2800.000000	68.336	-21.7676
2850.000000	68.376	-148.2871
2900.000000	68.387	85.5371
2950.000000	68.368	-40.1602
3000.000000	68.315	-165.4092
3040.000000	68.243	22.6475
3070.000000	68.169	163.8164
3110.000000	68.043	-7.7617
3150.000000	67.893	-179.0488
3200.000000	67.676	57.2197
3250.000000	67.430	-66.2627
3300.000000	67.147	170.3643
3350.000000	66.827	47.1143
3400.000000	66.478	-75.9336
3450.000000	66.107	161.2041
3500.000000	65.719	38.4590
3550.000000	65.328	-84.1709
3600.000000	64.953	153.3652
3650.000000	64.614	31.1406
3700.000000	64.329	-90.7461
3750.000000	64.111	147.7686
3820.000000	63.936	122.3633
3870.000000	63.910	1.8438
3950.000000	64.056	26.0527
4000.000000	64.266	-93.0254
4060.000000	64.621	-163.1328
4120.000000	65.073	127.4648
4180.000000	65.606	58.5664
4250.000000	66.299	38.5293
4310.000000	66.920	-30.0039
4370.000000	67.545	-98.5000
4440.000000	68.239	-118.2402
4500.000000	68.754	173.5879
4550.000000	69.086	56.9023
4620.000000	69.354	37.8164
4680.000000	69.372	-29.5332
4750.000000	69.130	-47.2832
4820.000000	68.626	-63.6699
4870.000000	68.133	-177.0586
4940.000000	67.306	170.2324
5000.000000	66.512	109.8984
5080.000000	65.390	152.1387
5150.000000	64.386	146.3574
5220.000000	63.390	142.5039
5300.000000	62.282	-168.2949
5380.000000	61.223	-117.0430
5450.000000	60.347	-115.7852
5520.000000	59.531	-113.3555
5600.000000	58.690	-57.8340
5700.000000	57.802	103.2109
5800.000000	57.113	-94.3613
5900.000000	56.632	69.1172
6000.000000	56.348	-126.6465
6080.000000	56.238	-66.8926
6150.000000	56.209	-59.3594
6220.000000	56.233	-51.6113
6300.000000	56.308	8.8574
6400.000000	56.458	174.6523
6500.000000	56.663	-19.2305
6600.000000	56.914	147.3438
6700.000000	57.204	-45.5820
6800.000000	57.528	122.0156
6900.000000	57.892	-69.7109
7000.000000	58.310	99.3281
7100.000000	58.792	-91.1016
7200.000000	59.340	78.6367
7300.000000	59.957	-111.4336
7400.000000	60.657	59.1094
7500.000000	61.456	-129.3945
7620.000000	62.547	149.6719
7750.000000	63.860	122.9453
7880.000000	65.264	96.0898
8000.000000	66.619	14.4297
8120.000000	67.995	-70.4727
8250.000000	69.424	-108.0234
8380.000000	70.666	-151.6797
8500.000000	71.484	108.1758
8620.000000	71.842	5.3164
8750.000000	71.653	-46.4727
8850.000000	71.138	109.1953
9000.000000	69.928	167.4961
9120.000000	68.758	74.7734
9250.000000	67.448	38.7266
9380.000000	66.205	6.8711
9500.000000	65.181	-74.5469
9620.000000	64.301	-153.2578
9750.000000	63.508	-176.2695
9880.000000	62.863	162.2617
10000.000000	62.381	88.0234
10150.000000	61.909	176.3164
10300.000000	61.561	-94.3594
10440.000000	61.328	-58.3477
10600.000000	61.147	86.0547
10750.000000	61.032	176.5391
10900.000000	60.946	-92.9922
11060.000000	60.909	51.7539
11200.000000	60.974	88.9375
11380.000000	61.210	-16.7070
11500.000000	61.427	-86.6953
11720.000000	61.827	25.4219
11800.000000	61.945	98.9297
12060.000000	62.138	68.0391
12200.000000	62.100	107.2812
12410.000000	61.854	167.2500
12500.000000	61.686	-63.6641
12650.000000	61.340	32.5273
12800.000000	60.917	130.3906
13150.000000	59.617	-113.8438
13200.000000	59.395	160.5781
13400.000000	58.443	179.6797
13600.000000	57.470	-159.2891
13800.000000	56.594	-136.3516
14000.000000	55.893	-111.5000
14300.000000	55.237	109.1953
14500.000000	55.079	137.8594
14750.000000	55.195	84.2578
15000.000000	55.607	30.7812
15250.000000	56.167	-22.4375
15500.000000	56.845	-74.5234
15750.000000	57.779	-124.6562
16000.000000	59.052	-172.9844
16250.000000	60.496	138.9453
16500.000000	61.748	89.0547
16750.000000	62.471	37.3750
17000.000000	62.508	-13.3438
17250.000000	61.929	-59.8906
17500.000000	60.990	-100.9531
17750.000000	60.029	-137.1406
18000.000000	59.337	-169.8438
18250.000000	59.052	159.4219
18500.000000	59.124	128.8828
18750.000000	59.389	95.1328
19000.000000	59.662	48.5781
19250.000000	59.790	-38.1719
19500.000000	59.706	127.7344
19750.000000	59.469	56.2344
