* Measurement data measured by REW V5.31.3
* Source: Microphone (USB Sound Device        ), MICROPHONE (Master Volume), L, volume: 0.700
* Format: 256k Log Swept Sine, 1 sweep at -12.0 dBFS with no timing reference
* Dated: 31-Jan-2025 15:10:11
* REW Settings:
*  C-weighting compensation: Off
*  Target level: 75.0 dB
* Note: 
* Measurement: HFBP4 Default L
* Smoothing: 1/12 octave
* Frequency Step: 1/48 octave
* Start Frequency: 20.300 Hz
*
* Freq(Hz)	SPL(dB)	Phase(degrees)
20.299999	85.431	24.0120
20.600000	85.473	23.6173
20.900000	85.527	23.1156
21.200001	85.585	22.5500
21.400000	85.623	22.1377
21.799999	85.693	21.2193
22.000000	85.723	20.7145
22.400000	85.770	19.6376
22.700001	85.796	18.8026
23.000000	85.817	17.9744
23.299999	85.838	17.1728
23.600000	85.863	16.4067
24.000000	85.906	15.4356
24.299999	85.945	14.7350
24.700001	85.999	13.8263
25.000000	86.036	13.1642
25.400000	86.077	12.3159
25.799999	86.106	11.5120
26.200001	86.126	10.7395
26.500000	86.139	10.1613
26.900000	86.158	9.3613
27.200001	86.174	8.7254
27.600000	86.198	7.8284
28.000000	86.222	6.8970
28.500000	86.251	5.7425
29.000000	86.271	4.6630
29.500000	86.282	3.6956
30.000000	86.284	2.8357
30.400000	86.283	2.2000
30.700001	86.280	1.7354
31.100000	86.277	1.1104
31.500000	86.274	0.4603
32.000000	86.272	-0.4043
32.500000	86.273	-1.3329
33.000000	86.277	-2.3246
33.500000	86.284	-3.3693
34.000000	86.296	-4.4428
34.500000	86.311	-5.5093
35.000000	86.326	-6.5330
35.500000	86.334	-7.4846
36.000000	86.331	-8.3418
36.500000	86.314	-9.0941
37.000000	86.286	-9.7551
37.500000	86.253	-10.3641
38.200001	86.204	-11.2198
38.700001	86.171	-11.8779
39.500000	86.128	-13.0474
40.000000	86.103	-13.8454
40.599998	86.068	-14.8204
41.200001	86.028	-15.7359
41.799999	85.987	-16.5542
42.500000	85.943	-17.4557
43.099998	85.902	-18.2636
43.700001	85.856	-19.1120
44.400002	85.800	-20.1068
45.000000	85.755	-20.9516
45.500000	85.714	-21.6586
46.200001	85.641	-22.6536
46.799999	85.569	-23.5073
47.500000	85.487	-24.4937
48.200001	85.415	-25.3685
48.700001	85.371	-25.8199
49.400002	85.322	-26.1759
50.000000	85.284	-26.4029
50.799999	85.215	-27.0397
51.500000	85.126	-28.0524
52.200001	85.031	-29.2839
53.000000	84.944	-30.5681
53.799999	84.863	-31.4877
54.500000	84.772	-32.0602
55.200001	84.660	-32.6478
56.000000	84.529	-33.5208
57.000000	84.410	-34.6814
58.000000	84.348	-35.4878
59.000000	84.275	-36.0833
60.000000	84.149	-36.8318
60.799999	84.036	-37.5698
61.500000	83.949	-38.2187
62.200001	83.869	-38.7807
63.000000	83.774	-39.2872
64.000000	83.637	-39.8255
65.000000	83.489	-40.4165
66.000000	83.346	-41.0919
67.000000	83.217	-41.7708
68.000000	83.098	-42.3684
69.000000	82.976	-42.8752
70.000000	82.849	-43.3650
71.000000	82.725	-43.9001
72.000000	82.608	-44.4258
73.000000	82.490	-44.8455
74.000000	82.360	-45.1657
75.000000	82.220	-45.4689
76.199997	82.057	-45.8508
77.500000	81.887	-46.1991
78.800003	81.692	-46.5036
80.000000	81.503	-46.8706
81.199997	81.360	-47.3526
82.500000	81.264	-47.8322
83.800003	81.171	-48.0804
85.000000	81.055	-48.1543
86.199997	80.918	-48.2527
87.500000	80.761	-48.5029
88.500000	80.641	-48.7841
90.000000	80.478	-49.1540
91.199997	80.371	-49.2603
92.500000	80.255	-49.2788
93.800003	80.113	-49.4060
95.000000	79.967	-49.6062
96.199997	79.827	-49.7587
97.500000	79.680	-49.8343
98.800003	79.534	-49.8715
100.000000	79.409	-49.9345
101.500000	79.271	-50.0828
103.000000	79.142	-50.2025
104.400002	79.029	-50.2013
106.000000	78.909	-50.0981
107.500000	78.804	-50.0314
109.000000	78.691	-49.9874
110.599998	78.556	-49.9020
112.000000	78.426	-49.8282
113.800003	78.249	-49.7750
115.000000	78.130	-49.7466
117.199997	77.920	-49.6910
118.000000	77.845	-49.6864
120.599998	77.582	-49.8052
122.000000	77.426	-49.7903
124.099998	77.198	-49.3837
125.000000	77.113	-49.0812
126.500000	77.004	-48.5318
128.000000	76.930	-48.0360
131.500000	76.743	-46.3629
132.000000	76.711	-46.0039
134.000000	76.602	-44.5172
136.000000	76.552	-43.2767
138.000000	76.542	-42.4891
140.000000	76.529	-42.1787
143.000000	76.515	-42.0680
145.000000	76.504	-41.9636
147.500000	76.454	-41.8538
150.000000	76.372	-41.7853
152.500000	76.286	-41.6503
155.000000	76.202	-41.4412
157.500000	76.117	-41.1786
160.000000	76.030	-40.8927
162.500000	75.952	-40.6336
165.000000	75.882	-40.4010
167.500000	75.819	-40.1524
170.000000	75.759	-39.8725
172.500000	75.700	-39.5249
175.000000	75.641	-39.0995
177.500000	75.580	-38.6794
180.000000	75.519	-38.3525
182.500000	75.456	-38.1171
185.000000	75.385	-37.9062
187.500000	75.303	-37.6660
190.000000	75.217	-37.3734
192.500000	75.140	-37.0270
195.000000	75.077	-36.6617
197.500000	75.029	-36.3073
200.000000	74.995	-35.9822
203.000000	74.974	-35.6498
206.000000	74.973	-35.3625
209.000000	74.977	-35.0742
212.000000	74.975	-34.7518
214.000000	74.970	-34.5223
218.000000	74.952	-34.0617
220.000000	74.940	-33.8448
224.000000	74.913	-33.4385
227.000000	74.892	-33.1638
230.000000	74.876	-32.9372
233.000000	74.867	-32.7431
236.000000	74.862	-32.5416
240.000000	74.859	-32.2676
243.000000	74.853	-32.0968
247.000000	74.843	-31.9072
250.000000	74.836	-31.7651
254.000000	74.828	-31.5549
258.000000	74.819	-31.3449
262.000000	74.812	-31.1738
265.000000	74.808	-31.0727
269.000000	74.802	-30.9710
272.000000	74.798	-30.9156
276.000000	74.792	-30.8661
280.000000	74.787	-30.8434
285.000000	74.784	-30.8366
290.000000	74.780	-30.8491
295.000000	74.769	-30.8660
300.000000	74.752	-30.8779
304.000000	74.738	-30.9116
307.000000	74.728	-30.9606
311.000000	74.718	-31.0538
315.000000	74.710	-31.1565
320.000000	74.701	-31.2759
325.000000	74.690	-31.3992
330.000000	74.670	-31.5457
335.000000	74.647	-31.7063
340.000000	74.625	-31.8601
345.000000	74.608	-32.0186
350.000000	74.589	-32.1961
355.000000	74.566	-32.3886
360.000000	74.541	-32.6062
365.000000	74.515	-32.8428
370.000000	74.484	-33.0703
375.000000	74.446	-33.2952
382.000000	74.381	-33.6302
387.000000	74.333	-33.8670
395.000000	74.265	-34.2322
400.000000	74.223	-34.4594
406.000000	74.170	-34.7415
412.000000	74.108	-35.0307
418.000000	74.033	-35.3052
425.000000	73.936	-35.6081
431.000000	73.852	-35.8372
437.000000	73.767	-36.0134
444.000000	73.663	-36.1673
450.000000	73.570	-36.3013
455.000000	73.494	-36.4251
462.000000	73.396	-36.5672
468.000000	73.315	-36.6270
475.000000	73.221	-36.6356
482.000000	73.128	-36.6281
487.000000	73.066	-36.6501
494.000000	72.982	-36.7278
500.000000	72.908	-36.8043
508.000000	72.801	-36.8573
515.000000	72.700	-36.8582
522.000000	72.595	-36.8398
530.000000	72.473	-36.8020
538.000000	72.351	-36.7279
545.000000	72.246	-36.6274
552.000000	72.141	-36.4962
560.000000	72.022	-36.3117
570.000000	71.873	-36.0508
580.000000	71.728	-35.7510
590.000000	71.584	-35.3960
600.000000	71.435	-35.0056
608.000000	71.314	-34.6683
615.000000	71.209	-34.3490
622.000000	71.112	-34.0216
630.000000	71.011	-33.6670
640.000000	70.888	-33.2346
650.000000	70.764	-32.7367
660.000000	70.640	-32.1342
670.000000	70.516	-31.4702
680.000000	70.394	-30.7873
690.000000	70.272	-30.0729
700.000000	70.155	-29.2954
710.000000	70.047	-28.4675
720.000000	69.947	-27.6228
730.000000	69.846	-26.7686
740.000000	69.742	-25.8777
750.000000	69.637	-24.9569
762.000000	69.518	-23.8173
775.000000	69.408	-22.4992
788.000000	69.331	-21.1363
800.000000	69.283	-19.8627
812.000000	69.242	-18.5942
825.000000	69.200	-17.2370
838.000000	69.161	-15.8763
850.000000	69.132	-14.6153
862.000000	69.114	-13.3784
875.000000	69.109	-12.0757
885.000000	69.113	-11.0942
900.000000	69.131	-9.6530
912.000000	69.151	-8.5124
925.000000	69.174	-7.2570
938.000000	69.200	-5.9857
950.000000	69.229	-4.8416
962.000000	69.266	-3.7394
975.000000	69.322	-2.5900
988.000000	69.390	-1.4857
1000.000000	69.459	-0.5001
1015.000000	69.549	0.6716
1030.000000	69.646	1.7604
1044.000000	69.740	2.7176
1060.000000	69.853	3.7808
1075.000000	69.963	4.7678
1090.000000	70.077	5.7101
1106.000000	70.198	6.6218
1120.000000	70.305	7.3650
1138.000000	70.444	8.2957
1150.000000	70.539	8.8925
1172.000000	70.723	9.9099
1180.000000	70.793	10.2613
1206.000000	71.035	11.3323
1220.000000	71.173	11.8496
1241.000000	71.390	12.5446
1250.000000	71.487	12.8188
1265.000000	71.652	13.2577
1280.000000	71.819	13.6802
1315.000000	72.194	14.5986
1320.000000	72.241	14.7274
1340.000000	72.405	15.2487
1360.000000	72.524	15.7588
1380.000000	72.608	16.2284
1400.000000	72.678	16.6570
1430.000000	72.804	17.2574
1450.000000	72.919	17.6510
1475.000000	73.101	18.1042
1500.000000	73.318	18.5127
1525.000000	73.554	18.8742
1550.000000	73.801	19.1852
1575.000000	74.057	19.4048
1600.000000	74.311	19.5160
1625.000000	74.558	19.5684
1650.000000	74.805	19.5609
1675.000000	75.054	19.4631
1700.000000	75.299	19.2882
1725.000000	75.534	19.0580
1750.000000	75.762	18.7805
1775.000000	75.987	18.4546
1800.000000	76.211	18.0678
1825.000000	76.433	17.6031
1850.000000	76.652	17.0647
1875.000000	76.864	16.4519
1900.000000	77.066	15.7721
1925.000000	77.253	15.0424
1950.000000	77.428	14.2676
1975.000000	77.591	13.4615
2000.000000	77.747	12.6424
2030.000000	77.928	11.6535
2060.000000	78.100	10.6354
2090.000000	78.262	9.5836
2120.000000	78.410	8.5044
2140.000000	78.500	7.7741
2180.000000	78.671	6.3076
2200.000000	78.754	5.5676
2240.000000	78.905	4.0729
2270.000000	79.010	2.9383
2300.000000	79.109	1.7973
2330.000000	79.198	0.6759
2360.000000	79.275	-0.4121
2400.000000	79.369	-1.8245
2430.000000	79.435	-2.8731
2470.000000	79.516	-4.2680
2500.000000	79.570	-5.3063
2540.000000	79.628	-6.6689
2580.000000	79.674	-8.0093
2620.000000	79.709	-9.3276
2650.000000	79.728	-10.3073
2690.000000	79.743	-11.6033
2720.000000	79.747	-12.5613
2760.000000	79.742	-13.8102
2800.000000	79.727	-14.9871
2850.000000	79.704	-16.2698
2900.000000	79.704	-17.3026
2950.000000	79.732	-18.3566
3000.000000	79.749	-19.5350
3040.000000	79.768	-20.5202
3070.000000	79.782	-21.3304
3110.000000	79.786	-22.4560
3150.000000	79.766	-23.5387
3200.000000	79.723	-24.7881
3250.000000	79.673	-25.9486
3300.000000	79.622	-27.0358
3350.000000	79.564	-28.0602
3400.000000	79.495	-29.0251
3450.000000	79.416	-29.9314
3500.000000	79.328	-30.7778
3550.000000	79.236	-31.5604
3600.000000	79.147	-32.2906
3650.000000	79.065	-32.9938
3700.000000	78.995	-33.6791
3750.000000	78.936	-34.3226
3820.000000	78.870	-35.1511
3870.000000	78.827	-35.7407
3950.000000	78.751	-36.7019
4000.000000	78.694	-37.2485
4060.000000	78.611	-37.8249
4120.000000	78.510	-38.3319
4180.000000	78.396	-38.7731
4250.000000	78.251	-39.2014
4310.000000	78.122	-39.5046
4370.000000	77.993	-39.7449
4440.000000	77.853	-39.9585
4500.000000	77.754	-40.1071
4550.000000	77.687	-40.2232
4620.000000	77.613	-40.3826
4680.000000	77.564	-40.5127
4750.000000	77.513	-40.6547
4820.000000	77.458	-40.7933
4870.000000	77.413	-40.8968
4940.000000	77.340	-41.0354
5000.000000	77.267	-41.1182
5080.000000	77.157	-41.1188
5150.000000	77.052	-40.9971
5220.000000	76.947	-40.7740
5300.000000	76.838	-40.4213
5380.000000	76.739	-40.0337
5450.000000	76.653	-39.7153
5520.000000	76.563	-39.4079
5600.000000	76.460	-39.0104
5700.000000	76.344	-38.3389
5800.000000	76.259	-37.4636
5900.000000	76.206	-36.4819
6000.000000	76.171	-35.4013
6080.000000	76.147	-34.4082
6150.000000	76.129	-33.4062
6220.000000	76.118	-32.2678
6300.000000	76.124	-30.8057
6400.000000	76.181	-28.7762
6500.000000	76.314	-26.6287
6600.000000	76.535	-24.5071
6700.000000	76.850	-22.5690
6800.000000	77.259	-20.9947
6900.000000	77.751	-19.9668
7000.000000	78.311	-19.6402
7100.000000	78.919	-20.1822
7200.000000	79.539	-21.7473
7300.000000	80.113	-24.3737
7400.000000	80.581	-27.9190
7500.000000	80.900	-32.0901
7620.000000	81.046	-37.3447
7750.000000	80.900	-42.5988
7880.000000	80.439	-46.6867
8000.000000	79.782	-48.7230
8120.000000	79.031	-48.8008
8250.000000	78.278	-47.0682
8380.000000	77.709	-44.1675
8500.000000	77.407	-41.0047
8620.000000	77.336	-37.9612
8750.000000	77.467	-35.4009
8850.000000	77.653	-34.1865
9000.000000	77.959	-33.6863
9120.000000	78.149	-34.2845
9250.000000	78.246	-35.6261
9380.000000	78.206	-37.3014
9500.000000	78.050	-38.8084
9620.000000	77.799	-40.0329
9750.000000	77.443	-40.8421
9880.000000	77.031	-40.9960
10000.000000	76.628	-40.5330
10150.000000	76.126	-39.1836
10300.000000	75.650	-37.0538
10440.000000	75.242	-34.4386
10600.000000	74.835	-30.8143
10750.000000	74.530	-26.9180
10900.000000	74.317	-22.6531
11060.000000	74.203	-17.8154
11200.000000	74.200	-13.4502
11380.000000	74.334	-7.8172
11500.000000	74.517	-4.1306
11720.000000	75.070	2.2594
11800.000000	75.347	4.3740
12060.000000	76.523	9.7563
12200.000000	77.305	11.1983
12410.000000	78.551	10.5705
12500.000000	79.055	9.1092
12650.000000	79.758	5.0671
12800.000000	80.181	-0.7006
13150.000000	79.572	-16.5670
13200.000000	79.291	-18.5714
13400.000000	77.769	-24.6911
13600.000000	75.810	-26.8962
13800.000000	73.719	-24.8484
14000.000000	71.774	-18.8774
14300.000000	69.570	-4.2351
14500.000000	68.731	7.8925
14750.000000	68.402	23.8845
15000.000000	68.752	38.8797
15250.000000	69.562	51.0797
15500.000000	70.594	59.4459
15750.000000	71.684	63.8308
16000.000000	72.716	64.7305
16250.000000	73.600	63.0030
16500.000000	74.257	59.5273
16750.000000	74.626	55.0162
17000.000000	74.665	50.1141
17250.000000	74.356	45.4869
17500.000000	73.724	41.8137
17750.000000	72.845	39.6573
18000.000000	71.831	39.3121
18250.000000	70.785	40.7875
18500.000000	69.776	43.9162
18750.000000	68.839	48.4533
19000.000000	67.997	54.1056
19250.000000	67.249	60.4888
19500.000000	66.584	67.0377
19750.000000	66.023	72.8321
20000.000000	65.690	76.3448
