* Measurement data measured by REW V5.31.3
* Source: Microphone (USB Sound Device        ), MICROPHONE (Master Volume), L, volume: 0.700
* Format: 256k Log Swept Sine, 1 sweep at -12.0 dBFS with no timing reference
* Dated: 31-Jan-2025 15:09:38
* REW Settings:
*  C-weighting compensation: Off
*  Target level: 75.0 dB
* Note: 
* Measurement: HFBP4 A Default L
* Smoothing: 1/12 octave
* Frequency Step: 1/48 octave
* Start Frequency: 20.300 Hz
*
* Freq(Hz)	SPL(dB)	Phase(degrees)
20.299999	86.787	-18.9806
20.600000	86.778	-19.0528
20.900000	86.766	-19.1479
21.200001	86.755	-19.2594
21.400000	86.749	-19.3442
21.799999	86.742	-19.5481
22.000000	86.742	-19.6704
22.400000	86.746	-19.9554
22.700001	86.751	-20.1974
23.000000	86.755	-20.4535
23.299999	86.760	-20.7166
23.600000	86.765	-20.9845
24.000000	86.771	-21.3565
24.299999	86.774	-21.6569
24.700001	86.777	-22.0994
25.000000	86.778	-22.4655
25.400000	86.775	-22.9914
25.799999	86.768	-23.5429
26.200001	86.758	-24.1003
26.500000	86.748	-24.5155
26.900000	86.736	-25.0647
27.200001	86.726	-25.4776
27.600000	86.712	-26.0373
28.000000	86.697	-26.6139
28.500000	86.673	-27.3589
29.000000	86.641	-28.1230
29.500000	86.605	-28.8994
30.000000	86.565	-29.6892
30.400000	86.531	-30.3313
30.700001	86.503	-30.8161
31.100000	86.463	-31.4597
31.500000	86.420	-32.0925
32.000000	86.367	-32.8641
32.500000	86.312	-33.6238
33.000000	86.255	-34.3850
33.500000	86.190	-35.1460
34.000000	86.114	-35.8855
34.500000	86.030	-36.5768
35.000000	85.940	-37.2057
35.500000	85.851	-37.7788
36.000000	85.766	-38.3197
36.500000	85.686	-38.8544
37.000000	85.606	-39.3952
37.500000	85.522	-39.9320
38.200001	85.393	-40.6357
38.700001	85.298	-41.0932
39.500000	85.148	-41.7879
40.000000	85.055	-42.2177
40.599998	84.942	-42.7137
41.200001	84.830	-43.1665
41.799999	84.725	-43.5864
42.500000	84.606	-44.0709
43.099998	84.502	-44.4834
43.700001	84.396	-44.8703
44.400002	84.274	-45.2753
45.000000	84.173	-45.5924
45.500000	84.091	-45.8430
46.200001	83.977	-46.1734
46.799999	83.879	-46.4315
47.500000	83.765	-46.6938
48.200001	83.654	-46.9158
48.700001	83.577	-47.0624
49.400002	83.473	-47.2775
50.000000	83.381	-47.4865
50.799999	83.253	-47.7925
51.500000	83.137	-48.0472
52.200001	83.022	-48.2409
53.000000	82.896	-48.3687
53.799999	82.779	-48.4563
54.500000	82.686	-48.5683
55.200001	82.594	-48.7220
56.000000	82.486	-48.8802
57.000000	82.347	-48.9529
58.000000	82.214	-48.9723
59.000000	82.094	-49.1090
60.000000	81.986	-49.2947
60.799999	81.900	-49.3437
61.500000	81.817	-49.3130
62.200001	81.724	-49.3085
63.000000	81.615	-49.4428
64.000000	81.509	-49.7913
65.000000	81.445	-50.0634
66.000000	81.376	-50.0486
67.000000	81.260	-49.8916
68.000000	81.118	-49.8526
69.000000	80.996	-49.9422
70.000000	80.906	-50.0330
71.000000	80.820	-50.1025
72.000000	80.731	-50.2247
73.000000	80.655	-50.4380
74.000000	80.602	-50.6510
75.000000	80.559	-50.7348
76.199997	80.494	-50.6290
77.500000	80.387	-50.4891
78.800003	80.255	-50.6047
80.000000	80.145	-50.8891
81.199997	80.062	-51.1432
82.500000	79.994	-51.2474
83.800003	79.927	-51.1952
85.000000	79.842	-51.0965
86.199997	79.737	-51.0934
87.500000	79.631	-51.2775
88.500000	79.561	-51.4805
90.000000	79.450	-51.7292
91.199997	79.347	-51.8872
92.500000	79.240	-52.1130
93.800003	79.141	-52.3820
95.000000	79.049	-52.5839
96.199997	78.956	-52.7281
97.500000	78.857	-52.8596
98.800003	78.759	-52.9888
100.000000	78.669	-53.1057
101.500000	78.549	-53.2463
103.000000	78.418	-53.3805
104.400002	78.291	-53.4851
106.000000	78.149	-53.5441
107.500000	78.018	-53.5694
109.000000	77.887	-53.6040
110.599998	77.751	-53.6778
112.000000	77.636	-53.7588
113.800003	77.487	-53.8164
115.000000	77.386	-53.8222
117.199997	77.193	-53.7772
118.000000	77.120	-53.7414
120.599998	76.885	-53.5335
122.000000	76.762	-53.3793
124.099998	76.584	-53.1074
125.000000	76.508	-52.9752
126.500000	76.380	-52.7344
128.000000	76.253	-52.4509
131.500000	75.974	-51.5184
132.000000	75.936	-51.3631
134.000000	75.791	-50.7522
136.000000	75.660	-50.1803
138.000000	75.541	-49.6333
140.000000	75.426	-49.0992
143.000000	75.269	-48.3980
145.000000	75.172	-47.9561
147.500000	75.052	-47.3507
150.000000	74.932	-46.6863
152.500000	74.814	-46.0091
155.000000	74.708	-45.3495
157.500000	74.615	-44.6806
160.000000	74.526	-43.9689
162.500000	74.440	-43.2588
165.000000	74.359	-42.5711
167.500000	74.285	-41.8652
170.000000	74.223	-41.1462
172.500000	74.168	-40.4395
175.000000	74.114	-39.7528
177.500000	74.061	-39.0788
180.000000	74.007	-38.4353
182.500000	73.944	-37.8594
185.000000	73.869	-37.3530
187.500000	73.786	-36.8745
190.000000	73.706	-36.3690
192.500000	73.637	-35.7884
195.000000	73.586	-35.1228
197.500000	73.554	-34.4283
200.000000	73.536	-33.7781
203.000000	73.533	-33.0914
206.000000	73.546	-32.4778
209.000000	73.566	-31.9175
212.000000	73.582	-31.4030
214.000000	73.587	-31.0876
218.000000	73.591	-30.5221
220.000000	73.595	-30.2611
224.000000	73.609	-29.7321
227.000000	73.619	-29.3005
230.000000	73.623	-28.8592
233.000000	73.625	-28.4326
236.000000	73.628	-28.0275
240.000000	73.635	-27.5054
243.000000	73.642	-27.1249
247.000000	73.652	-26.6198
250.000000	73.663	-26.2490
254.000000	73.682	-25.7794
258.000000	73.700	-25.3482
262.000000	73.716	-24.9621
265.000000	73.726	-24.6981
269.000000	73.740	-24.3738
272.000000	73.751	-24.1510
276.000000	73.768	-23.8817
280.000000	73.790	-23.6386
285.000000	73.824	-23.3415
290.000000	73.860	-23.0508
295.000000	73.894	-22.7802
300.000000	73.921	-22.5420
304.000000	73.943	-22.3925
307.000000	73.960	-22.3018
311.000000	73.982	-22.1941
315.000000	74.004	-22.0865
320.000000	74.035	-21.9708
325.000000	74.067	-21.9037
330.000000	74.098	-21.8691
335.000000	74.128	-21.8458
340.000000	74.158	-21.8306
345.000000	74.192	-21.8373
350.000000	74.227	-21.8711
355.000000	74.260	-21.9156
360.000000	74.291	-21.9831
365.000000	74.321	-22.1125
370.000000	74.346	-22.3175
375.000000	74.361	-22.5601
382.000000	74.375	-22.8604
387.000000	74.390	-23.0476
395.000000	74.418	-23.3684
400.000000	74.437	-23.5737
406.000000	74.458	-23.8313
412.000000	74.470	-24.1359
418.000000	74.467	-24.4998
425.000000	74.455	-24.9516
431.000000	74.440	-25.3357
437.000000	74.415	-25.7167
444.000000	74.374	-26.1389
450.000000	74.334	-26.5165
455.000000	74.298	-26.8644
462.000000	74.243	-27.3268
468.000000	74.192	-27.6342
475.000000	74.134	-27.9044
482.000000	74.080	-28.1424
487.000000	74.042	-28.3195
494.000000	73.986	-28.6053
500.000000	73.936	-28.8882
508.000000	73.870	-29.2808
515.000000	73.808	-29.6241
522.000000	73.737	-29.9591
530.000000	73.647	-30.2925
538.000000	73.554	-30.5351
545.000000	73.474	-30.6867
552.000000	73.392	-30.8165
560.000000	73.295	-30.9518
570.000000	73.171	-31.0905
580.000000	73.045	-31.1915
590.000000	72.920	-31.2450
600.000000	72.795	-31.2936
608.000000	72.689	-31.3355
615.000000	72.594	-31.3577
622.000000	72.501	-31.3549
630.000000	72.395	-31.3059
640.000000	72.260	-31.1621
650.000000	72.126	-30.9826
660.000000	71.998	-30.8176
670.000000	71.877	-30.6330
680.000000	71.758	-30.3945
690.000000	71.630	-30.0598
700.000000	71.494	-29.6352
710.000000	71.362	-29.1663
720.000000	71.241	-28.6812
730.000000	71.128	-28.1956
740.000000	71.011	-27.7167
750.000000	70.886	-27.2234
762.000000	70.734	-26.5194
775.000000	70.575	-25.5685
788.000000	70.428	-24.4999
800.000000	70.303	-23.4851
812.000000	70.194	-22.4521
825.000000	70.096	-21.2732
838.000000	70.011	-20.0283
850.000000	69.937	-18.8505
862.000000	69.865	-17.6553
875.000000	69.792	-16.3365
885.000000	69.741	-15.3192
900.000000	69.682	-13.8025
912.000000	69.649	-12.5698
925.000000	69.625	-11.2192
938.000000	69.611	-9.8887
950.000000	69.606	-8.6710
962.000000	69.612	-7.4436
975.000000	69.635	-6.1088
988.000000	69.674	-4.7991
1000.000000	69.720	-3.6242
1015.000000	69.790	-2.1988
1030.000000	69.874	-0.8117
1044.000000	69.965	0.4422
1060.000000	70.080	1.7708
1075.000000	70.193	2.8789
1090.000000	70.308	3.8849
1106.000000	70.434	4.8887
1120.000000	70.549	5.7107
1138.000000	70.701	6.6653
1150.000000	70.806	7.2338
1172.000000	71.007	8.1781
1180.000000	71.084	8.4920
1206.000000	71.345	9.3647
1220.000000	71.488	9.7489
1241.000000	71.701	10.2536
1250.000000	71.792	10.4515
1265.000000	71.945	10.7709
1280.000000	72.095	11.0877
1315.000000	72.405	11.8163
1320.000000	72.441	11.9214
1340.000000	72.556	12.3530
1360.000000	72.622	12.8027
1380.000000	72.652	13.2687
1400.000000	72.675	13.7714
1430.000000	72.749	14.5966
1450.000000	72.836	15.1423
1475.000000	72.978	15.7885
1500.000000	73.152	16.4171
1525.000000	73.346	17.0499
1550.000000	73.556	17.6597
1575.000000	73.784	18.1829
1600.000000	74.023	18.5731
1625.000000	74.265	18.8523
1650.000000	74.500	19.0611
1675.000000	74.732	19.2185
1700.000000	74.966	19.3110
1725.000000	75.200	19.3040
1750.000000	75.433	19.2087
1775.000000	75.664	19.0654
1800.000000	75.891	18.8921
1825.000000	76.118	18.6528
1850.000000	76.343	18.3204
1875.000000	76.559	17.8975
1900.000000	76.762	17.3955
1925.000000	76.956	16.8433
1950.000000	77.141	16.2587
1975.000000	77.316	15.6260
2000.000000	77.481	14.9487
2030.000000	77.668	14.1111
2060.000000	77.845	13.2600
2090.000000	78.008	12.4087
2120.000000	78.159	11.5398
2140.000000	78.259	10.9506
2180.000000	78.462	9.7539
2200.000000	78.558	9.1508
2240.000000	78.732	7.9524
2270.000000	78.854	7.0607
2300.000000	78.972	6.1794
2330.000000	79.086	5.3009
2360.000000	79.191	4.4137
2400.000000	79.321	3.2289
2430.000000	79.412	2.3534
2470.000000	79.527	1.1965
2500.000000	79.608	0.3306
2540.000000	79.711	-0.8263
2580.000000	79.807	-1.9857
2620.000000	79.898	-3.1542
2650.000000	79.963	-4.0480
2690.000000	80.045	-5.2599
2720.000000	80.101	-6.1773
2760.000000	80.164	-7.4046
2800.000000	80.209	-8.6054
2850.000000	80.238	-9.9807
2900.000000	80.266	-11.0858
2950.000000	80.332	-12.1381
3000.000000	80.397	-13.3032
3040.000000	80.455	-14.2686
3070.000000	80.501	-15.0867
3110.000000	80.550	-16.2889
3150.000000	80.576	-17.5164
3200.000000	80.588	-18.9864
3250.000000	80.586	-20.3611
3300.000000	80.572	-21.6320
3350.000000	80.548	-22.8052
3400.000000	80.513	-23.8943
3450.000000	80.469	-24.9106
3500.000000	80.416	-25.8542
3550.000000	80.357	-26.7254
3600.000000	80.297	-27.5323
3650.000000	80.247	-28.2730
3700.000000	80.211	-28.9638
3750.000000	80.191	-29.6164
3820.000000	80.184	-30.4854
3870.000000	80.191	-31.0986
3950.000000	80.211	-32.0628
4000.000000	80.223	-32.6432
4060.000000	80.225	-33.3182
4120.000000	80.212	-33.9778
4180.000000	80.192	-34.6274
4250.000000	80.167	-35.3621
4310.000000	80.152	-36.0139
4370.000000	80.147	-36.7586
4440.000000	80.157	-37.7944
4500.000000	80.180	-38.8364
4550.000000	80.205	-39.8067
4620.000000	80.240	-41.3056
4680.000000	80.255	-42.7119
4750.000000	80.241	-44.4734
4820.000000	80.185	-46.3095
4870.000000	80.114	-47.6189
4940.000000	79.971	-49.3782
5000.000000	79.809	-50.7608
5080.000000	79.544	-52.3352
5150.000000	79.283	-53.3883
5220.000000	79.012	-54.1180
5300.000000	78.704	-54.6409
5380.000000	78.403	-54.9412
5450.000000	78.135	-55.0548
5520.000000	77.861	-54.9997
5600.000000	77.554	-54.6662
5700.000000	77.209	-53.8421
5800.000000	76.926	-52.6907
5900.000000	76.700	-51.3603
6000.000000	76.514	-49.9058
6080.000000	76.386	-48.6139
6150.000000	76.285	-47.3546
6220.000000	76.198	-45.9596
6300.000000	76.121	-44.2038
6400.000000	76.079	-41.8249
6500.000000	76.113	-39.3474
6600.000000	76.235	-36.8964
6700.000000	76.450	-34.6247
6800.000000	76.755	-32.6913
6900.000000	77.143	-31.2297
7000.000000	77.602	-30.3761
7100.000000	78.111	-30.2883
7200.000000	78.638	-31.1116
7300.000000	79.137	-32.8714
7400.000000	79.560	-35.4455
7500.000000	79.867	-38.6139
7620.000000	80.043	-42.7650
7750.000000	79.970	-47.0835
7880.000000	79.596	-50.5129
8000.000000	79.015	-52.1364
8120.000000	78.332	-51.9658
8250.000000	77.636	-50.1160
8380.000000	77.104	-47.1655
8500.000000	76.827	-43.9622
8620.000000	76.776	-40.8826
8750.000000	76.923	-38.2954
8850.000000	77.114	-37.0635
9000.000000	77.419	-36.5286
9120.000000	77.607	-37.0922
9250.000000	77.701	-38.3660
9380.000000	77.660	-39.9482
9500.000000	77.503	-41.3668
9620.000000	77.247	-42.4839
9750.000000	76.886	-43.1561
9880.000000	76.469	-43.1752
10000.000000	76.058	-42.5970
10150.000000	75.544	-41.1012
10300.000000	75.054	-38.8137
10440.000000	74.632	-36.0484
10600.000000	74.206	-32.2535
10750.000000	73.883	-28.1733
10900.000000	73.653	-23.6964
11060.000000	73.518	-18.6211
11200.000000	73.491	-14.0263
11380.000000	73.586	-8.0026
11500.000000	73.738	-3.9882
11720.000000	74.233	3.1060
11800.000000	74.490	5.5214
12060.000000	75.620	12.2457
12200.000000	76.406	14.6944
12410.000000	77.738	15.8428
12500.000000	78.319	15.1559
12650.000000	79.207	12.2467
12800.000000	79.876	7.2074
13150.000000	79.892	-9.3538
13200.000000	79.685	-11.7109
13400.000000	78.375	-19.5895
13600.000000	76.496	-23.6545
13800.000000	74.374	-23.1263
14000.000000	72.325	-18.1858
14300.000000	69.926	-4.1879
14500.000000	68.977	8.0198
14750.000000	68.566	24.4254
15000.000000	68.895	39.8770
15250.000000	69.731	52.4176
15500.000000	70.822	60.9556
15750.000000	71.985	65.2933
16000.000000	73.087	65.9192
16250.000000	74.016	63.7509
16500.000000	74.681	59.7860
16750.000000	75.032	54.8175
17000.000000	75.041	49.5053
17250.000000	74.693	44.5369
17500.000000	74.014	40.6299
17750.000000	73.084	38.3602
18000.000000	72.013	38.0237
18250.000000	70.912	39.6119
18500.000000	69.859	42.9117
18750.000000	68.891	47.6554
19000.000000	68.027	53.5391
19250.000000	67.264	60.1671
19500.000000	66.589	66.9520
19750.000000	66.031	72.9277
20000.000000	65.703	76.5312
