* Measurement data measured by REW V5.31.3
* Source: Microphone (USB Sound Device        ), MICROPHONE (Master Volume), L, volume: 0.700
* Format: 256k Log Swept Sine, 1 sweep at -12.0 dBFS with no timing reference
* Dated: 31-Jan-2025 15:12:33
* REW Settings:
*  C-weighting compensation: Off
*  Target level: 75.0 dB
* Note: 
* Measurement: HFBP4 A Bal R
* Smoothing: 1/12 octave
* Frequency Step: 1/48 octave
* Start Frequency: 20.300 Hz
*
* Freq(Hz)	SPL(dB)	Phase(degrees)
20.299999	86.195	-11.7688
20.600000	86.198	-11.7588
20.900000	86.202	-11.7641
21.200001	86.208	-11.7988
21.400000	86.213	-11.8416
21.799999	86.224	-11.9717
22.000000	86.231	-12.0544
22.400000	86.247	-12.2395
22.700001	86.261	-12.3857
23.000000	86.278	-12.5352
23.299999	86.298	-12.6921
23.600000	86.321	-12.8645
24.000000	86.352	-13.1320
24.299999	86.375	-13.3661
24.700001	86.403	-13.7202
25.000000	86.423	-14.0107
25.400000	86.448	-14.4196
25.799999	86.472	-14.8444
26.200001	86.495	-15.2801
26.500000	86.510	-15.6130
26.900000	86.527	-16.0647
27.200001	86.538	-16.4105
27.600000	86.548	-16.8847
28.000000	86.556	-17.3809
28.500000	86.562	-18.0399
29.000000	86.562	-18.7358
29.500000	86.555	-19.4430
30.000000	86.545	-20.1342
30.400000	86.535	-20.6690
30.700001	86.527	-21.0627
31.100000	86.514	-21.5848
31.500000	86.500	-22.1098
32.000000	86.480	-22.7714
32.500000	86.457	-23.4313
33.000000	86.433	-24.0809
33.500000	86.409	-24.7162
34.000000	86.384	-25.3354
34.500000	86.357	-25.9353
35.000000	86.327	-26.5136
35.500000	86.293	-27.0754
36.000000	86.259	-27.6345
36.500000	86.223	-28.2042
37.000000	86.185	-28.7849
37.500000	86.142	-29.3608
38.200001	86.076	-30.1180
38.700001	86.029	-30.6119
39.500000	85.960	-31.3507
40.000000	85.919	-31.8066
40.599998	85.872	-32.3627
41.200001	85.825	-32.9281
41.799999	85.778	-33.4976
42.500000	85.726	-34.1600
43.099998	85.681	-34.7190
43.700001	85.638	-35.2633
44.400002	85.590	-35.8757
45.000000	85.549	-36.3877
45.500000	85.515	-36.8135
46.200001	85.464	-37.4158
46.799999	85.418	-37.9352
47.500000	85.366	-38.5393
48.200001	85.319	-39.1446
48.700001	85.289	-39.5802
49.400002	85.247	-40.1920
50.000000	85.206	-40.7123
50.799999	85.140	-41.3968
51.500000	85.076	-41.9951
52.200001	85.013	-42.6077
53.000000	84.944	-43.3306
53.799999	84.874	-44.0577
54.500000	84.811	-44.6844
55.200001	84.745	-45.3115
56.000000	84.663	-46.0403
57.000000	84.552	-46.9519
58.000000	84.437	-47.8336
59.000000	84.321	-48.6740
60.000000	84.209	-49.4989
60.799999	84.120	-50.1780
61.500000	84.040	-50.7767
62.200001	83.957	-51.3506
63.000000	83.858	-51.9553
64.000000	83.729	-52.6470
65.000000	83.598	-53.3110
66.000000	83.466	-53.9714
67.000000	83.334	-54.6124
68.000000	83.203	-55.2249
69.000000	83.073	-55.8151
70.000000	82.940	-56.3799
71.000000	82.803	-56.9144
72.000000	82.665	-57.4204
73.000000	82.528	-57.9044
74.000000	82.394	-58.3663
75.000000	82.261	-58.8039
76.199997	82.101	-59.3063
77.500000	81.929	-59.8298
78.800003	81.759	-60.3211
80.000000	81.605	-60.7493
81.199997	81.451	-61.1647
82.500000	81.281	-61.5782
83.800003	81.111	-61.9311
85.000000	80.959	-62.2271
86.199997	80.813	-62.5268
87.500000	80.656	-62.8432
88.500000	80.533	-63.0599
90.000000	80.347	-63.3592
91.199997	80.197	-63.5914
92.500000	80.033	-63.8288
93.800003	79.870	-64.0518
95.000000	79.721	-64.2473
96.199997	79.574	-64.4355
97.500000	79.414	-64.6274
98.800003	79.253	-64.8048
100.000000	79.103	-64.9654
101.500000	78.914	-65.1540
103.000000	78.726	-65.2903
104.400002	78.556	-65.3631
106.000000	78.367	-65.3979
107.500000	78.189	-65.4161
109.000000	78.008	-65.4444
110.599998	77.814	-65.4511
112.000000	77.645	-65.4059
113.800003	77.429	-65.2937
115.000000	77.288	-65.1827
117.199997	77.040	-64.8883
118.000000	76.951	-64.7661
120.599998	76.663	-64.3579
122.000000	76.506	-64.1144
124.099998	76.268	-63.7282
125.000000	76.167	-63.5618
126.500000	76.006	-63.2738
128.000000	75.851	-62.9428
131.500000	75.507	-61.9215
132.000000	75.459	-61.7530
134.000000	75.278	-61.0408
136.000000	75.113	-60.2904
138.000000	74.962	-59.5362
140.000000	74.819	-58.8220
143.000000	74.620	-57.8435
145.000000	74.500	-57.1941
147.500000	74.355	-56.3492
150.000000	74.210	-55.5123
152.500000	74.071	-54.7131
155.000000	73.943	-53.9223
157.500000	73.819	-53.0939
160.000000	73.697	-52.2835
162.500000	73.581	-51.5505
165.000000	73.480	-50.8503
167.500000	73.393	-50.1268
170.000000	73.313	-49.3627
172.500000	73.231	-48.5353
175.000000	73.151	-47.6731
177.500000	73.073	-46.8406
180.000000	72.997	-46.0684
182.500000	72.918	-45.3679
185.000000	72.832	-44.7183
187.500000	72.740	-44.0627
190.000000	72.646	-43.3727
192.500000	72.559	-42.6565
195.000000	72.487	-41.9359
197.500000	72.431	-41.2395
200.000000	72.394	-40.5877
203.000000	72.375	-39.8593
206.000000	72.375	-39.1767
209.000000	72.380	-38.5123
212.000000	72.377	-37.8393
214.000000	72.368	-37.3846
218.000000	72.346	-36.4666
220.000000	72.335	-36.0088
224.000000	72.310	-35.1159
227.000000	72.291	-34.5035
230.000000	72.272	-33.9533
233.000000	72.257	-33.4230
236.000000	72.245	-32.8738
240.000000	72.230	-32.1443
243.000000	72.218	-31.6386
247.000000	72.205	-30.9988
250.000000	72.200	-30.5161
254.000000	72.199	-29.8673
258.000000	72.201	-29.2564
262.000000	72.203	-28.6943
265.000000	72.205	-28.2849
269.000000	72.207	-27.7462
272.000000	72.209	-27.3573
276.000000	72.211	-26.8729
280.000000	72.218	-26.3972
285.000000	72.232	-25.8036
290.000000	72.246	-25.2742
295.000000	72.259	-24.7890
300.000000	72.272	-24.3144
304.000000	72.286	-23.9440
307.000000	72.300	-23.6773
311.000000	72.318	-23.3404
315.000000	72.338	-23.0106
320.000000	72.365	-22.6063
325.000000	72.394	-22.2578
330.000000	72.422	-21.9759
335.000000	72.449	-21.7320
340.000000	72.480	-21.4801
345.000000	72.517	-21.2100
350.000000	72.555	-20.9551
355.000000	72.584	-20.7380
360.000000	72.610	-20.5782
365.000000	72.638	-20.4587
370.000000	72.665	-20.3348
375.000000	72.691	-20.2248
382.000000	72.720	-20.1577
387.000000	72.739	-20.1521
395.000000	72.774	-20.1727
400.000000	72.796	-20.1966
406.000000	72.822	-20.2472
412.000000	72.842	-20.3311
418.000000	72.850	-20.4317
425.000000	72.850	-20.5622
431.000000	72.851	-20.6867
437.000000	72.849	-20.8266
444.000000	72.836	-20.9985
450.000000	72.817	-21.1732
455.000000	72.801	-21.3388
462.000000	72.784	-21.5280
468.000000	72.771	-21.6006
475.000000	72.750	-21.6317
482.000000	72.722	-21.6789
487.000000	72.700	-21.7346
494.000000	72.671	-21.8012
500.000000	72.648	-21.8321
508.000000	72.615	-21.8806
515.000000	72.580	-21.9578
522.000000	72.542	-22.0491
530.000000	72.491	-22.1360
538.000000	72.435	-22.2014
545.000000	72.384	-22.2363
552.000000	72.334	-22.2302
560.000000	72.275	-22.1770
570.000000	72.200	-22.1105
580.000000	72.132	-22.0465
590.000000	72.060	-21.9409
600.000000	71.982	-21.7868
608.000000	71.915	-21.6385
615.000000	71.857	-21.4908
622.000000	71.807	-21.3367
630.000000	71.757	-21.1809
640.000000	71.694	-21.0238
650.000000	71.628	-20.8579
660.000000	71.560	-20.6316
670.000000	71.491	-20.3453
680.000000	71.420	-20.0252
690.000000	71.346	-19.7153
700.000000	71.270	-19.3873
710.000000	71.199	-18.9851
720.000000	71.129	-18.5308
730.000000	71.055	-18.0709
740.000000	70.974	-17.5972
750.000000	70.890	-17.1053
762.000000	70.794	-16.4852
775.000000	70.701	-15.7188
788.000000	70.624	-14.8822
800.000000	70.572	-14.0538
812.000000	70.529	-13.1898
825.000000	70.485	-12.2327
838.000000	70.443	-11.2543
850.000000	70.412	-10.3458
862.000000	70.390	-9.4517
875.000000	70.376	-8.4918
885.000000	70.371	-7.7462
900.000000	70.369	-6.6381
912.000000	70.370	-5.7564
925.000000	70.372	-4.7745
938.000000	70.380	-3.7579
950.000000	70.394	-2.8181
962.000000	70.419	-1.8931
975.000000	70.461	-0.9010
988.000000	70.519	0.0749
1000.000000	70.580	0.9361
1015.000000	70.661	1.9320
1030.000000	70.751	2.8437
1044.000000	70.844	3.6342
1060.000000	70.959	4.4723
1075.000000	71.071	5.2073
1090.000000	71.182	5.8937
1106.000000	71.301	6.5325
1120.000000	71.404	7.0079
1138.000000	71.540	7.5357
1150.000000	71.634	7.8429
1172.000000	71.814	8.3359
1180.000000	71.880	8.4982
1206.000000	72.097	8.9229
1220.000000	72.215	9.0818
1241.000000	72.394	9.2415
1250.000000	72.472	9.2865
1265.000000	72.601	9.3461
1280.000000	72.728	9.4039
1315.000000	72.987	9.6074
1320.000000	73.016	9.6442
1340.000000	73.099	9.8089
1360.000000	73.130	10.0116
1380.000000	73.125	10.2684
1400.000000	73.107	10.5864
1430.000000	73.100	11.1419
1450.000000	73.133	11.5416
1475.000000	73.219	12.0522
1500.000000	73.342	12.5558
1525.000000	73.492	13.0348
1550.000000	73.659	13.4953
1575.000000	73.839	13.9032
1600.000000	74.025	14.2340
1625.000000	74.209	14.5097
1650.000000	74.397	14.7144
1675.000000	74.591	14.8186
1700.000000	74.783	14.8453
1725.000000	74.969	14.8265
1750.000000	75.148	14.7633
1775.000000	75.326	14.6454
1800.000000	75.503	14.4579
1825.000000	75.678	14.1872
1850.000000	75.849	13.8431
1875.000000	76.014	13.4332
1900.000000	76.170	12.9650
1925.000000	76.314	12.4483
1950.000000	76.445	11.8964
1975.000000	76.564	11.3339
2000.000000	76.676	10.7740
2030.000000	76.803	10.1003
2060.000000	76.923	9.4005
2090.000000	77.031	8.6827
2120.000000	77.122	7.9847
2140.000000	77.175	7.5344
2180.000000	77.274	6.6560
2200.000000	77.322	6.2193
2240.000000	77.414	5.3644
2270.000000	77.477	4.7416
2300.000000	77.537	4.1432
2330.000000	77.591	3.5887
2360.000000	77.639	3.0829
2400.000000	77.700	2.4748
2430.000000	77.748	2.0513
2470.000000	77.814	1.5081
2500.000000	77.864	1.1171
2540.000000	77.927	0.6223
2580.000000	77.990	0.1424
2620.000000	78.055	-0.3356
2650.000000	78.104	-0.6932
2690.000000	78.168	-1.1900
2720.000000	78.212	-1.5864
2760.000000	78.264	-2.1445
2800.000000	78.310	-2.6973
2850.000000	78.364	-3.2792
2900.000000	78.439	-3.6329
2950.000000	78.551	-4.0022
3000.000000	78.661	-4.5477
3040.000000	78.756	-5.0135
3070.000000	78.832	-5.4601
3110.000000	78.922	-6.2074
3150.000000	78.989	-7.0286
3200.000000	79.047	-8.0231
3250.000000	79.090	-8.9433
3300.000000	79.125	-9.8081
3350.000000	79.149	-10.6292
3400.000000	79.163	-11.3943
3450.000000	79.166	-12.1094
3500.000000	79.160	-12.7835
3550.000000	79.148	-13.4081
3600.000000	79.137	-13.9798
3650.000000	79.131	-14.5190
3700.000000	79.134	-15.0419
3750.000000	79.149	-15.5307
3820.000000	79.191	-16.1479
3870.000000	79.229	-16.5899
3950.000000	79.287	-17.3301
4000.000000	79.318	-17.7518
4060.000000	79.348	-18.1998
4120.000000	79.370	-18.6037
4180.000000	79.386	-18.9722
4250.000000	79.404	-19.4045
4310.000000	79.425	-19.8180
4370.000000	79.451	-20.2891
4440.000000	79.496	-20.9533
4500.000000	79.553	-21.6680
4550.000000	79.609	-22.3902
4620.000000	79.689	-23.5888
4680.000000	79.745	-24.7524
4750.000000	79.784	-26.2103
4820.000000	79.779	-27.7264
4870.000000	79.744	-28.8211
4940.000000	79.650	-30.3120
5000.000000	79.528	-31.4762
5080.000000	79.316	-32.7354
5150.000000	79.097	-33.4992
5220.000000	78.865	-33.9393
5300.000000	78.603	-34.0837
5380.000000	78.352	-33.9594
5450.000000	78.136	-33.7082
5520.000000	77.920	-33.3176
5600.000000	77.684	-32.6372
5700.000000	77.427	-31.3691
5800.000000	77.236	-29.7188
5900.000000	77.114	-27.8856
6000.000000	77.042	-25.9508
6080.000000	77.007	-24.2931
6150.000000	76.992	-22.7246
6220.000000	76.995	-21.0309
6300.000000	77.030	-18.9498
6400.000000	77.138	-16.1892
6500.000000	77.333	-13.3625
6600.000000	77.625	-10.5932
6700.000000	78.017	-8.0320
6800.000000	78.508	-5.8725
6900.000000	79.090	-4.2891
7000.000000	79.746	-3.4190
7100.000000	80.457	-3.4249
7200.000000	81.189	-4.4505
7300.000000	81.889	-6.5076
7400.000000	82.503	-9.4663
7500.000000	82.992	-13.1110
7620.000000	83.378	-17.9353
7750.000000	83.520	-23.0799
7880.000000	83.355	-27.4710
8000.000000	82.971	-30.1718
8120.000000	82.483	-31.3191
8250.000000	81.983	-31.1602
8380.000000	81.611	-30.1097
8500.000000	81.433	-28.7690
8620.000000	81.431	-27.5584
8750.000000	81.584	-26.8756
8850.000000	81.759	-26.9649
9000.000000	82.015	-28.1557
9120.000000	82.148	-29.8952
9250.000000	82.175	-32.3017
9380.000000	82.063	-34.9075
9500.000000	81.839	-37.1873
9620.000000	81.519	-39.1219
9750.000000	81.089	-40.6464
9880.000000	80.602	-41.4684
10000.000000	80.130	-41.5802
10150.000000	79.544	-40.9000
10300.000000	78.983	-39.4106
10440.000000	78.495	-37.3911
10600.000000	77.992	-34.4636
10750.000000	77.585	-31.2250
10900.000000	77.253	-27.5970
11060.000000	76.989	-23.3907
11200.000000	76.838	-19.4959
11380.000000	76.756	-14.2797
11500.000000	76.781	-10.7195
11720.000000	77.025	-4.1852
11800.000000	77.185	-1.8747
12060.000000	78.007	4.7804
12200.000000	78.640	7.3229
12410.000000	79.773	8.7288
12500.000000	80.278	8.1764
12650.000000	81.052	5.5095
12800.000000	81.620	0.7298
13150.000000	81.418	-15.1608
13200.000000	81.181	-17.4114
13400.000000	79.753	-24.8274
13600.000000	77.760	-28.3792
13800.000000	75.523	-27.2751
14000.000000	73.360	-21.6366
14300.000000	70.796	-6.4148
14500.000000	69.755	6.6069
14750.000000	69.254	23.9707
15000.000000	69.512	40.3334
15250.000000	70.284	53.7075
15500.000000	71.312	62.9728
15750.000000	72.415	67.9663
16000.000000	73.461	69.2125
16250.000000	74.339	67.6505
16500.000000	74.967	64.2823
16750.000000	75.290	59.9107
17000.000000	75.276	55.2001
17250.000000	74.906	50.8161
17500.000000	74.207	47.4681
17750.000000	73.262	45.7567
18000.000000	72.183	45.9702
18250.000000	71.080	48.0887
18500.000000	70.023	51.9123
18750.000000	69.049	57.1523
19000.000000	68.178	63.4938
19250.000000	67.409	70.5541
19500.000000	66.731	77.7450
19750.000000	66.171	84.0595
20000.000000	65.844	87.8603
