* Measurement data measured by REW V5.31.3
* Source: Microphone (6- USB Sound Device        ), MICROPHONE (Master Volume), L, volume: 0.700
* Format: 256k Log Swept Sine, 1 sweep at -12.0 dBFS with no timing reference
* Dated: 08-Mar-2025 19:54:55
* REW Settings:
*  C-weighting compensation: Off
*  Target level: 75.0 dB
* Note: 
* Measurement: Huawei FreeArc TB R
* Smoothing: 1/12 octave
* Frequency Step: 1/48 octave
* Start Frequency: 20.300 Hz
*
* Freq(Hz)	SPL(dB)	Phase(degrees)
20.299999	27.246	-92.4022
20.600000	26.560	-119.1997
20.900000	27.134	157.3809
21.200001	28.890	128.9447
21.400000	30.051	122.7290
21.799999	31.539	117.2818
22.000000	31.828	116.1330
22.400000	31.641	115.4194
22.700001	30.994	114.9966
23.000000	30.098	112.4788
23.299999	29.237	104.1638
23.600000	28.916	84.0929
24.000000	30.037	40.7808
24.299999	31.602	17.2797
24.700001	33.551	1.4487
25.000000	34.598	-4.5427
25.400000	35.434	-8.0870
25.799999	35.842	-7.8590
26.200001	36.105	-5.2693
26.500000	36.317	-3.0146
26.900000	36.627	-1.1052
27.200001	36.846	-0.9260
27.600000	37.111	-2.1431
28.000000	37.420	-4.3115
28.500000	38.026	-7.2173
29.000000	38.908	-9.6099
29.500000	39.894	-11.4550
30.000000	40.766	-13.1736
30.400000	41.286	-14.8245
30.700001	41.548	-16.3831
31.100000	41.736	-18.9929
31.500000	41.793	-22.2220
32.000000	41.857	-26.9713
32.500000	42.153	-32.1348
33.000000	42.778	-37.1422
33.500000	43.592	-41.3864
34.000000	44.402	-44.4601
34.500000	45.124	-46.4015
35.000000	45.771	-47.8065
35.500000	46.356	-49.5449
36.000000	46.858	-52.1302
36.500000	47.255	-55.3544
37.000000	47.577	-58.5577
37.500000	47.908	-61.2596
38.200001	48.533	-64.6560
38.700001	49.088	-67.7359
39.500000	50.003	-74.3699
40.000000	50.559	-78.7791
40.599998	51.241	-83.3517
41.200001	51.912	-87.0970
41.799999	52.453	-90.5834
42.500000	52.822	-94.7740
43.099998	53.019	-98.4357
43.700001	53.284	-102.1516
44.400002	53.741	-106.5815
45.000000	54.173	-110.3263
45.500000	54.527	-113.4247
46.200001	55.050	-118.0598
46.799999	55.584	-122.2367
47.500000	56.392	-126.3807
48.200001	57.389	-129.3611
48.700001	58.070	-131.4567
49.400002	58.697	-135.2733
50.000000	58.810	-139.3628
50.799999	58.552	-145.2112
51.500000	58.380	-150.3360
52.200001	58.506	-155.4992
53.000000	58.851	-161.1443
53.799999	59.201	-166.1915
54.500000	59.493	-170.3521
55.200001	59.786	-174.5420
56.000000	60.116	-179.3140
57.000000	60.498	174.9158
58.000000	60.859	169.1575
59.000000	61.225	163.2546
60.000000	61.585	157.4180
60.799999	61.862	152.8894
61.500000	62.099	149.0002
62.200001	62.336	145.1516
63.000000	62.606	140.7726
64.000000	62.929	135.2515
65.000000	63.238	129.6736
66.000000	63.560	124.1542
67.000000	63.894	118.7277
68.000000	64.200	113.3009
69.000000	64.453	107.8132
70.000000	64.655	102.3412
71.000000	64.825	97.0282
72.000000	64.981	91.9579
73.000000	65.144	87.1184
74.000000	65.330	82.4218
75.000000	65.539	77.7957
76.199997	65.811	72.3377
77.500000	66.115	66.5068
78.800003	66.414	60.6339
80.000000	66.688	55.1506
81.199997	66.964	49.6599
82.500000	67.260	43.7081
83.800003	67.557	37.6721
85.000000	67.826	32.0201
86.199997	68.082	26.3575
87.500000	68.346	20.2422
88.500000	68.543	15.5485
90.000000	68.821	8.5029
91.199997	69.027	2.8900
92.500000	69.243	-3.1334
93.800003	69.458	-9.1147
95.000000	69.662	-14.6255
96.199997	69.870	-20.1348
97.500000	70.088	-26.1093
98.800003	70.289	-32.1039
100.000000	70.458	-37.6741
101.500000	70.640	-44.7203
103.000000	70.789	-51.8233
104.400002	70.902	-58.3861
106.000000	71.011	-65.6994
107.500000	71.103	-72.3773
109.000000	71.187	-78.9411
110.599998	71.267	-85.9093
112.000000	71.322	-91.9937
113.800003	71.371	-99.7144
115.000000	71.392	-104.7486
117.199997	71.413	-113.7504
118.000000	71.413	-116.9921
120.599998	71.375	-127.4504
122.000000	71.333	-132.9265
124.099998	71.253	-140.7928
125.000000	71.218	-144.0183
126.500000	71.166	-149.1979
128.000000	71.131	-154.1735
131.500000	71.129	-165.3619
132.000000	71.135	-166.9423
134.000000	71.167	-173.2869
136.000000	71.206	-179.7391
138.000000	71.230	173.7064
140.000000	71.225	167.1855
143.000000	71.172	157.6893
145.000000	71.132	151.6580
147.500000	71.126	144.6650
150.000000	71.190	138.1543
152.500000	71.333	131.7506
155.000000	71.542	125.2008
157.500000	71.791	118.4376
160.000000	72.059	111.4833
162.500000	72.334	104.3245
165.000000	72.609	96.9045
167.500000	72.880	89.2655
170.000000	73.142	81.4751
172.500000	73.386	73.5690
175.000000	73.604	65.6016
177.500000	73.787	57.6285
180.000000	73.935	49.6809
182.500000	74.056	41.7515
185.000000	74.163	33.8281
187.500000	74.266	25.9286
190.000000	74.369	18.0911
192.500000	74.468	10.3086
195.000000	74.556	2.5421
197.500000	74.638	-5.2063
200.000000	74.716	-12.9003
203.000000	74.801	-21.9965
206.000000	74.877	-30.8940
209.000000	74.946	-39.6045
212.000000	75.010	-48.1923
214.000000	75.052	-53.8634
218.000000	75.129	-65.0637
220.000000	75.162	-70.5934
224.000000	75.214	-81.5420
227.000000	75.248	-89.7092
230.000000	75.284	-97.8507
233.000000	75.322	-105.9702
236.000000	75.358	-114.0568
240.000000	75.397	-124.7178
243.000000	75.415	-132.5994
247.000000	75.426	-142.9282
250.000000	75.426	-150.5383
254.000000	75.422	-160.5514
258.000000	75.424	-170.4297
262.000000	75.435	179.8214
265.000000	75.448	172.5767
269.000000	75.469	162.9874
272.000000	75.486	155.8573
276.000000	75.507	146.4546
280.000000	75.525	137.1714
285.000000	75.543	125.7102
290.000000	75.561	114.3981
295.000000	75.582	103.2274
300.000000	75.610	92.2042
304.000000	75.635	83.4775
307.000000	75.652	76.9861
311.000000	75.668	68.3969
315.000000	75.678	59.8700
320.000000	75.687	49.2880
325.000000	75.696	38.8329
330.000000	75.709	28.5435
335.000000	75.734	18.3988
340.000000	75.768	8.3701
345.000000	75.800	-1.5659
350.000000	75.820	-11.4150
355.000000	75.833	-21.1643
360.000000	75.854	-30.7976
365.000000	75.888	-40.3235
370.000000	75.929	-49.7571
375.000000	75.967	-59.1058
382.000000	76.007	-72.0281
387.000000	76.027	-81.1071
395.000000	76.058	-95.4479
400.000000	76.086	-104.3616
406.000000	76.124	-114.9773
412.000000	76.156	-125.4675
418.000000	76.181	-135.8759
425.000000	76.207	-147.9121
431.000000	76.230	-158.1375
437.000000	76.254	-168.2875
444.000000	76.273	-179.9659
450.000000	76.282	170.2611
455.000000	76.287	162.2739
462.000000	76.296	151.2104
468.000000	76.310	141.7834
475.000000	76.333	130.8829
482.000000	76.358	120.1477
487.000000	76.375	112.5704
494.000000	76.400	102.0288
500.000000	76.425	93.0448
508.000000	76.465	81.1631
515.000000	76.504	70.8671
522.000000	76.548	60.6910
530.000000	76.595	49.1798
538.000000	76.639	37.7640
545.000000	76.678	27.8672
552.000000	76.718	18.0504
560.000000	76.763	6.9297
570.000000	76.817	-6.8094
580.000000	76.862	-20.3749
590.000000	76.894	-33.7354
600.000000	76.918	-46.8375
608.000000	76.936	-57.1810
615.000000	76.958	-66.1653
622.000000	76.986	-75.0925
630.000000	77.026	-85.2134
640.000000	77.075	-97.7236
650.000000	77.116	-110.1094
660.000000	77.155	-122.3752
670.000000	77.196	-134.4580
680.000000	77.235	-146.3184
690.000000	77.268	-158.0203
700.000000	77.306	-169.6006
710.000000	77.358	178.9688
720.000000	77.424	167.6670
730.000000	77.496	156.4702
740.000000	77.561	145.3896
750.000000	77.613	134.3975
762.000000	77.670	121.2412
775.000000	77.738	107.0723
788.000000	77.814	93.1133
800.000000	77.885	80.3945
812.000000	77.956	67.8528
825.000000	78.030	54.4470
838.000000	78.102	41.1631
850.000000	78.164	29.0139
862.000000	78.219	16.9849
875.000000	78.268	4.0916
885.000000	78.299	-5.7168
900.000000	78.334	-20.2134
912.000000	78.350	-31.5828
925.000000	78.360	-43.6094
938.000000	78.389	-55.3269
950.000000	78.460	-65.9758
962.000000	78.571	-76.6611
975.000000	78.688	-88.3430
988.000000	78.774	-99.9824
1000.000000	78.831	-110.5752
1015.000000	78.890	-123.6057
1030.000000	78.949	-136.4626
1044.000000	79.009	-148.3137
1060.000000	79.088	-161.6697
1075.000000	79.164	-173.9890
1090.000000	79.235	173.9106
1106.000000	79.310	161.1982
1120.000000	79.381	150.2051
1138.000000	79.482	136.2651
1150.000000	79.555	127.0903
1172.000000	79.697	110.4883
1180.000000	79.752	104.5173
1206.000000	79.941	85.3645
1220.000000	80.054	75.2554
1241.000000	80.255	60.4604
1250.000000	80.361	54.2427
1265.000000	80.573	43.9561
1280.000000	80.815	33.6401
1315.000000	81.313	9.3494
1320.000000	81.368	5.9055
1340.000000	81.556	-7.7148
1360.000000	81.693	-21.0903
1380.000000	81.797	-34.2598
1400.000000	81.892	-47.2607
1430.000000	82.067	-66.4792
1450.000000	82.220	-79.1016
1475.000000	82.446	-94.6196
1500.000000	82.690	-109.8567
1525.000000	82.941	-124.9009
1550.000000	83.196	-139.7686
1575.000000	83.455	-154.4019
1600.000000	83.713	-168.7754
1625.000000	83.968	177.1030
1650.000000	84.221	163.2031
1675.000000	84.471	149.4900
1700.000000	84.710	135.9614
1725.000000	84.941	122.6245
1750.000000	85.168	109.5239
1775.000000	85.392	96.6663
1800.000000	85.612	84.0125
1825.000000	85.828	71.5376
1850.000000	86.042	59.2585
1875.000000	86.253	47.1951
1900.000000	86.460	35.3425
1925.000000	86.661	23.6904
1950.000000	86.860	12.2310
1975.000000	87.062	0.9453
2000.000000	87.265	-10.1843
2030.000000	87.515	-23.3420
2060.000000	87.773	-36.2905
2090.000000	88.031	-49.0835
2120.000000	88.283	-61.7383
2140.000000	88.442	-70.0591
2180.000000	88.731	-86.4221
2200.000000	88.859	-94.4878
2240.000000	89.093	-110.4072
2270.000000	89.259	-122.1323
2300.000000	89.420	-133.6333
2330.000000	89.573	-144.9192
2360.000000	89.704	-156.0254
2400.000000	89.818	-170.4878
2430.000000	89.856	178.9910
2470.000000	89.864	165.4375
2500.000000	89.846	155.6328
2540.000000	89.803	143.0439
2580.000000	89.732	131.0051
2620.000000	89.630	119.5293
2650.000000	89.536	111.3218
2690.000000	89.400	100.9712
2720.000000	89.300	93.6499
2760.000000	89.177	84.3931
2800.000000	89.059	75.6411
2850.000000	88.914	65.4126
2900.000000	88.789	56.0110
2950.000000	88.680	47.3169
3000.000000	88.573	39.3577
3040.000000	88.498	33.5625
3070.000000	88.450	29.5208
3110.000000	88.401	24.5039
3150.000000	88.376	19.9102
3200.000000	88.391	14.7886
3250.000000	88.463	10.2959
3300.000000	88.596	6.2886
3350.000000	88.784	2.6130
3400.000000	89.009	-0.8325
3450.000000	89.255	-4.0996
3500.000000	89.507	-7.2036
3550.000000	89.756	-10.1042
3600.000000	90.004	-12.7305
3650.000000	90.265	-15.0605
3700.000000	90.546	-17.1472
3750.000000	90.842	-19.0854
3820.000000	91.243	-21.6475
3870.000000	91.504	-23.2856
3950.000000	91.880	-25.4580
4000.000000	92.078	-26.5608
4060.000000	92.264	-27.6919
4120.000000	92.373	-28.6169
4180.000000	92.384	-29.1775
4250.000000	92.285	-29.0913
4310.000000	92.128	-28.3010
4370.000000	91.921	-26.8831
4440.000000	91.635	-24.4380
4500.000000	91.363	-21.7188
4550.000000	91.114	-19.0391
4620.000000	90.716	-14.5371
4680.000000	90.331	-9.8713
4750.000000	89.846	-3.4990
4820.000000	89.327	3.7483
4870.000000	88.932	9.4062
4940.000000	88.337	18.0037
5000.000000	87.788	26.0488
5080.000000	87.002	37.7998
5150.000000	86.261	49.0283
5220.000000	85.463	61.2385
5300.000000	84.494	76.6526
5380.000000	83.488	93.8901
5450.000000	82.606	110.5400
5520.000000	81.750	128.5664
5600.000000	80.829	150.6816
5700.000000	79.789	-179.7866
5800.000000	78.884	-148.3706
5900.000000	78.126	-115.3372
6000.000000	77.503	-81.1289
6080.000000	77.076	-53.1160
6150.000000	76.739	-28.0728
6220.000000	76.433	-2.3704
6300.000000	76.127	27.7976
6400.000000	75.808	66.2119
6500.000000	75.545	105.2441
6600.000000	75.327	145.0925
6700.000000	75.157	-174.1125
6800.000000	75.039	-132.1567
6900.000000	74.983	-88.9924
7000.000000	75.000	-44.7039
7100.000000	75.106	0.8240
7200.000000	75.324	47.9165
7300.000000	75.661	96.0847
7400.000000	76.093	143.9163
7500.000000	76.571	-169.1792
7620.000000	77.118	-114.6260
7750.000000	77.541	-58.4709
7880.000000	77.678	-5.3384
8000.000000	77.623	39.6926
8120.000000	77.796	84.0439
8250.000000	78.839	-79.6631
8380.000000	80.519	-35.8657
8500.000000	81.926	1.3608
8620.000000	82.904	42.7047
8750.000000	83.534	95.4418
8850.000000	83.807	140.5471
9000.000000	84.007	-145.1926
9120.000000	84.066	-80.4519
9250.000000	84.066	-7.4949
9380.000000	83.984	63.5345
9500.000000	83.792	124.8262
9620.000000	83.456	-176.5367
9750.000000	82.939	-112.2783
9880.000000	82.353	-46.8070
10000.000000	81.908	15.4385
10150.000000	81.749	-171.2845
10300.000000	82.117	-65.0469
10440.000000	82.767	9.3455
10600.000000	83.654	122.4976
10750.000000	84.484	-138.3514
10900.000000	85.194	-53.5139
11060.000000	85.713	55.3146
11200.000000	85.875	134.4658
11380.000000	85.540	-146.3429
11500.000000	84.936	-96.1880
11720.000000	83.126	5.5721
11800.000000	82.302	52.8180
12060.000000	79.332	-53.7210
12200.000000	77.695	30.5321
12410.000000	75.372	-148.8614
12500.000000	74.478	-71.0424
12650.000000	73.236	44.9403
12800.000000	72.481	117.4066
13150.000000	73.432	68.7280
13200.000000	73.786	70.2808
13400.000000	75.167	99.9904
13600.000000	75.938	163.6752
13800.000000	75.846	-132.2809
14000.000000	75.079	-97.7993
14300.000000	73.548	-25.6979
14500.000000	72.880	29.6797
14750.000000	72.891	-44.3176
15000.000000	73.612	-54.4059
15250.000000	74.485	3.5250
15500.000000	75.250	5.4574
15750.000000	75.762	24.5601
16000.000000	75.808	65.2987
16250.000000	75.262	116.4319
16500.000000	74.235	124.0718
16750.000000	72.904	76.6207
17000.000000	71.388	97.6625
17250.000000	69.782	83.3118
17500.000000	68.167	60.6830
17750.000000	66.590	45.0376
18000.000000	65.095	7.6788
18250.000000	63.750	-39.7897
18500.000000	62.616	-171.6523
18750.000000	61.725	179.1509
19000.000000	61.096	178.3928
19250.000000	60.735	169.5856
19500.000000	60.586	-27.0143
19750.000000	60.540	-34.7373
20000.000000	60.524	-43.2542
