* Measurement data measured by REW V5.31.3
* Source: Microphone (6- USB Sound Device        ), MICROPHONE (Master Volume), L, volume: 0.700
* Format: 256k Log Swept Sine, 1 sweep at -12.0 dBFS with no timing reference
* Dated: 08-Mar-2025 19:52:06
* REW Settings:
*  C-weighting compensation: Off
*  Target level: 75.0 dB
* Note: 
* Measurement: Huawei FreeArc L
* Smoothing: 1/12 octave
* Frequency Step: 1/48 octave
* Start Frequency: 20.300 Hz
*
* Freq(Hz)	SPL(dB)	Phase(degrees)
20.299999	39.885	39.8950
20.600000	39.227	38.6590
20.900000	38.088	38.6349
21.200001	36.501	41.7538
21.400000	35.298	46.4950
21.799999	33.151	61.3347
22.000000	32.480	67.9239
22.400000	31.967	70.1307
22.700001	31.998	60.1513
23.000000	32.301	41.6867
23.299999	32.887	20.5458
23.600000	33.610	3.5655
24.000000	34.409	-9.9760
24.299999	34.737	-14.9393
24.700001	34.859	-17.1430
25.000000	34.837	-17.0139
25.400000	34.850	-16.8333
25.799999	35.046	-18.5776
26.200001	35.485	-22.4600
26.500000	35.971	-25.8276
26.900000	36.762	-29.3814
27.200001	37.383	-30.7997
27.600000	38.118	-31.0855
28.000000	38.631	-30.0640
28.500000	38.878	-27.7247
29.000000	38.804	-24.9710
29.500000	38.777	-23.3627
30.000000	39.172	-25.1254
30.400000	39.808	-29.4016
30.700001	40.378	-33.6625
31.100000	41.136	-39.6039
31.500000	41.810	-44.8914
32.000000	42.499	-50.0970
32.500000	43.049	-54.2314
33.000000	43.486	-58.0854
33.500000	43.824	-61.9177
34.000000	44.133	-65.4164
34.500000	44.545	-68.4035
35.000000	45.141	-71.3034
35.500000	45.863	-74.6245
36.000000	46.594	-78.2530
36.500000	47.280	-81.6259
37.000000	47.919	-84.5102
37.500000	48.481	-87.3672
38.200001	48.965	-92.6230
38.700001	49.019	-97.5856
39.500000	48.953	-106.6503
40.000000	49.226	-112.0785
40.599998	50.049	-117.5121
41.200001	51.107	-121.4344
41.799999	52.063	-123.9494
42.500000	52.865	-125.8930
43.099998	53.276	-127.6505
43.700001	53.520	-130.1878
44.400002	53.803	-134.6408
45.000000	54.162	-139.6391
45.500000	54.515	-144.0306
46.200001	54.969	-149.3341
46.799999	55.249	-152.9457
47.500000	55.345	-157.2602
48.200001	55.123	-162.7141
48.700001	54.906	-167.0190
49.400002	55.017	-172.5448
50.000000	55.739	-176.5434
50.799999	57.029	178.4395
51.500000	57.894	174.2001
52.200001	58.419	170.1223
53.000000	58.796	165.1135
53.799999	59.108	159.4375
54.500000	59.382	154.3219
55.200001	59.661	149.3771
56.000000	59.968	143.8762
57.000000	60.351	137.1197
58.000000	60.765	130.6104
59.000000	61.160	124.2573
60.000000	61.505	117.7922
60.799999	61.767	112.5265
61.500000	61.996	107.9650
62.200001	62.226	103.5065
63.000000	62.489	98.5019
64.000000	62.817	92.2815
65.000000	63.139	86.1389
66.000000	63.449	80.1191
67.000000	63.739	74.0961
68.000000	64.001	68.0018
69.000000	64.233	61.8927
70.000000	64.433	55.8157
71.000000	64.610	49.8463
72.000000	64.782	44.0875
73.000000	64.963	38.5686
74.000000	65.156	33.2204
75.000000	65.356	27.9100
76.199997	65.596	21.4297
77.500000	65.860	14.3420
78.800003	66.154	7.3887
80.000000	66.435	1.1051
81.199997	66.706	-5.1306
82.500000	66.986	-11.8750
83.800003	67.265	-18.6738
85.000000	67.524	-25.0438
86.199997	67.778	-31.4495
87.500000	68.034	-38.4169
88.500000	68.219	-43.8512
90.000000	68.486	-52.0598
91.199997	68.693	-58.5237
92.500000	68.914	-65.3901
93.800003	69.131	-72.2192
95.000000	69.325	-78.5623
96.199997	69.515	-84.9360
97.500000	69.707	-91.8483
98.800003	69.875	-98.7855
100.000000	70.009	-105.2450
101.500000	70.149	-113.3561
103.000000	70.261	-121.3822
104.400002	70.346	-128.7219
106.000000	70.431	-136.9515
107.500000	70.503	-144.5878
109.000000	70.557	-152.2101
110.599998	70.597	-160.3411
112.000000	70.620	-167.4366
113.800003	70.641	-176.4494
115.000000	70.647	177.6978
117.199997	70.633	167.3158
118.000000	70.617	163.5934
120.599998	70.520	151.5869
122.000000	70.439	145.2787
124.099998	70.298	136.1507
125.000000	70.237	132.3729
126.500000	70.146	126.2659
128.000000	70.070	120.3700
131.500000	69.962	107.0553
132.000000	69.952	105.1666
134.000000	69.920	97.5735
136.000000	69.887	89.8970
138.000000	69.842	82.1575
140.000000	69.775	74.4580
143.000000	69.619	63.3414
145.000000	69.498	56.4388
147.500000	69.381	48.4265
150.000000	69.338	40.8411
152.500000	69.386	33.3768
155.000000	69.513	25.8514
157.500000	69.684	18.1438
160.000000	69.886	10.2229
162.500000	70.111	2.1176
165.000000	70.343	-6.1367
167.500000	70.580	-14.5140
170.000000	70.821	-22.9990
172.500000	71.056	-31.5967
175.000000	71.274	-40.2314
177.500000	71.463	-48.8508
180.000000	71.625	-57.4788
182.500000	71.771	-66.1658
185.000000	71.913	-74.8872
187.500000	72.059	-83.5606
190.000000	72.208	-92.1729
192.500000	72.359	-100.7837
195.000000	72.512	-109.4711
197.500000	72.671	-118.2401
200.000000	72.832	-126.9977
203.000000	73.021	-137.3560
206.000000	73.203	-147.5098
209.000000	73.381	-157.5579
212.000000	73.557	-167.6056
214.000000	73.673	-174.2991
218.000000	73.898	172.3496
220.000000	74.003	165.6714
224.000000	74.202	152.2917
227.000000	74.345	142.2714
230.000000	74.484	132.2914
233.000000	74.614	122.3564
236.000000	74.736	112.4585
240.000000	74.888	99.3115
243.000000	74.987	89.5017
247.000000	75.100	76.4775
250.000000	75.175	66.7700
254.000000	75.272	53.9445
258.000000	75.372	41.2841
262.000000	75.476	28.7411
265.000000	75.554	19.3718
269.000000	75.657	6.9171
272.000000	75.729	-2.3831
276.000000	75.816	-14.7175
280.000000	75.891	-26.9821
285.000000	75.973	-42.1875
290.000000	76.048	-57.2405
295.000000	76.119	-72.1390
300.000000	76.184	-86.9009
304.000000	76.228	-98.6193
307.000000	76.256	-107.3353
311.000000	76.285	-118.8756
315.000000	76.304	-130.3660
320.000000	76.318	-144.6599
325.000000	76.322	-158.8165
330.000000	76.321	-172.8315
335.000000	76.318	173.2900
340.000000	76.312	159.5936
345.000000	76.306	146.0798
350.000000	76.294	132.7129
355.000000	76.275	119.4653
360.000000	76.253	106.3350
365.000000	76.229	93.3424
370.000000	76.198	80.4941
375.000000	76.154	67.7676
382.000000	76.077	50.1248
387.000000	76.015	37.6523
395.000000	75.922	17.9790
400.000000	75.874	5.8380
406.000000	75.825	-8.5841
412.000000	75.773	-22.8191
418.000000	75.713	-36.8917
425.000000	75.639	-53.1409
431.000000	75.570	-66.9492
437.000000	75.500	-80.6331
444.000000	75.427	-96.3562
450.000000	75.373	-109.5615
455.000000	75.328	-120.3943
462.000000	75.264	-135.4066
468.000000	75.214	-148.1794
475.000000	75.166	-162.9642
482.000000	75.130	-177.5978
487.000000	75.113	172.0374
494.000000	75.105	157.6422
500.000000	75.110	145.4166
508.000000	75.131	129.2493
515.000000	75.158	115.2026
522.000000	75.193	101.2086
530.000000	75.239	85.2701
538.000000	75.290	69.4365
545.000000	75.341	55.6660
552.000000	75.397	41.9561
560.000000	75.466	26.3557
570.000000	75.552	6.9716
580.000000	75.635	-12.2871
590.000000	75.716	-31.4116
600.000000	75.798	-50.3312
608.000000	75.862	-65.3505
615.000000	75.921	-78.4224
622.000000	75.983	-91.4351
630.000000	76.052	-106.2629
640.000000	76.133	-124.7949
650.000000	76.211	-143.2712
660.000000	76.291	-161.5730
670.000000	76.373	-179.6843
680.000000	76.449	162.3992
690.000000	76.518	144.6194
700.000000	76.591	126.9490
710.000000	76.677	109.4124
720.000000	76.777	91.9824
730.000000	76.881	74.6580
740.000000	76.975	57.4570
750.000000	77.052	40.3364
762.000000	77.137	19.7888
775.000000	77.235	-2.3943
788.000000	77.336	-24.3274
800.000000	77.429	-44.4058
812.000000	77.520	-64.3293
825.000000	77.612	-85.7659
838.000000	77.701	-107.0823
850.000000	77.779	-126.6038
862.000000	77.849	-145.9871
875.000000	77.915	-166.8657
885.000000	77.958	177.1760
900.000000	78.011	153.4604
912.000000	78.041	134.7095
925.000000	78.067	114.6777
938.000000	78.109	94.9189
950.000000	78.191	76.8076
962.000000	78.312	58.6772
975.000000	78.438	38.9927
988.000000	78.532	19.3872
1000.000000	78.595	1.4429
1015.000000	78.663	-20.8052
1030.000000	78.729	-42.9155
1044.000000	78.797	-63.4077
1060.000000	78.882	-86.6311
1075.000000	78.961	-108.1829
1090.000000	79.037	-129.5156
1106.000000	79.118	-152.1201
1120.000000	79.196	-171.7798
1138.000000	79.303	163.1990
1150.000000	79.377	146.6511
1172.000000	79.523	116.4973
1180.000000	79.581	105.5955
1206.000000	79.780	70.4285
1220.000000	79.895	51.6990
1241.000000	80.094	23.9319
1250.000000	80.199	12.1316
1265.000000	80.410	-7.4648
1280.000000	80.651	-27.0615
1315.000000	81.144	-72.8901
1320.000000	81.200	-79.4099
1340.000000	81.385	-105.3438
1360.000000	81.522	-131.0322
1380.000000	81.625	-156.5103
1400.000000	81.718	178.1724
1430.000000	81.884	140.4888
1450.000000	82.028	115.5801
1475.000000	82.241	84.7224
1500.000000	82.477	54.0959
1525.000000	82.727	23.5793
1550.000000	82.984	-6.7305
1575.000000	83.241	-36.7476
1600.000000	83.493	-66.4812
1625.000000	83.740	-95.9675
1650.000000	83.982	-125.2388
1675.000000	84.218	-154.3381
1700.000000	84.444	176.7314
1725.000000	84.662	147.9692
1750.000000	84.876	119.4673
1775.000000	85.085	91.2383
1800.000000	85.289	63.2080
1825.000000	85.488	35.3342
1850.000000	85.683	7.6509
1875.000000	85.874	-19.8018
1900.000000	86.060	-47.0352
1925.000000	86.240	-74.0718
1950.000000	86.418	-100.9153
1975.000000	86.595	-127.5903
2000.000000	86.771	-154.1567
2030.000000	86.986	174.0945
2060.000000	87.208	142.5767
2090.000000	87.435	111.3071
2120.000000	87.655	80.2996
2140.000000	87.791	59.7837
2180.000000	88.028	19.0273
2200.000000	88.129	-1.2651
2240.000000	88.307	-41.7163
2270.000000	88.429	-71.8877
2300.000000	88.545	-101.8120
2330.000000	88.650	-131.4658
2360.000000	88.731	-160.8774
2400.000000	88.773	160.3374
2430.000000	88.756	131.5742
2470.000000	88.688	93.6572
2500.000000	88.610	65.5439
2540.000000	88.480	28.5459
2580.000000	88.318	-7.8501
2620.000000	88.121	-43.6836
2650.000000	87.953	-70.1895
2690.000000	87.712	-104.9692
2720.000000	87.530	-130.6074
2760.000000	87.290	-164.2441
2800.000000	87.049	162.6670
2850.000000	86.746	121.9893
2900.000000	86.454	82.1523
2950.000000	86.165	43.1250
3000.000000	85.864	4.9028
3040.000000	85.627	-25.0225
3070.000000	85.459	-47.1313
3110.000000	85.249	-76.2373
3150.000000	85.059	-104.9243
3200.000000	84.854	-140.0786
3250.000000	84.700	-174.4648
3300.000000	84.613	151.7534
3350.000000	84.598	118.4844
3400.000000	84.645	85.6533
3450.000000	84.739	53.1904
3500.000000	84.865	21.0381
3550.000000	85.015	-10.8330
3600.000000	85.201	-42.3999
3650.000000	85.441	-73.6655
3700.000000	85.740	-104.7065
3750.000000	86.080	-135.5952
3820.000000	86.567	-178.7349
3870.000000	86.904	150.5244
3950.000000	87.422	101.7070
4000.000000	87.718	71.4316
4060.000000	88.020	35.2295
4120.000000	88.241	-0.7988
4180.000000	88.359	-36.5117
4250.000000	88.377	-77.5049
4310.000000	88.319	-112.0020
4370.000000	88.209	-145.9824
4440.000000	88.025	175.0566
4500.000000	87.826	142.2598
4550.000000	87.631	115.3706
4620.000000	87.312	78.4771
4680.000000	86.992	47.5884
4750.000000	86.572	12.4097
4820.000000	86.110	-21.8672
4870.000000	85.757	-45.8169
4940.000000	85.227	-78.6348
5000.000000	84.734	-106.0967
5080.000000	84.016	-141.6631
5150.000000	83.326	-171.7246
5220.000000	82.582	159.2217
5300.000000	81.679	127.3208
5380.000000	80.739	96.9478
5450.000000	79.917	71.6470
5520.000000	79.128	47.4360
5600.000000	78.289	20.9570
5700.000000	77.355	-10.5366
5800.000000	76.572	-40.4253
5900.000000	75.946	-68.8213
6000.000000	75.464	-95.8896
6080.000000	75.156	-116.7363
6150.000000	74.930	-134.4438
6220.000000	74.742	-151.6694
6300.000000	74.578	-170.7979
6400.000000	74.440	166.0732
6500.000000	74.364	143.7627
6600.000000	74.335	122.1958
6700.000000	74.345	101.4067
6800.000000	74.397	81.4541
6900.000000	74.489	62.3213
7000.000000	74.618	43.9468
7100.000000	74.797	26.2788
7200.000000	75.038	9.3057
7300.000000	75.346	-7.0488
7400.000000	75.707	-22.9390
7500.000000	76.082	-38.4624
7620.000000	76.484	-56.5366
7750.000000	76.752	-75.1328
7880.000000	76.731	-91.8857
8000.000000	76.499	-104.5083
8120.000000	76.418	-113.2466
8250.000000	77.190	-119.8921
8380.000000	78.705	-128.7100
8500.000000	80.003	-140.4434
8620.000000	80.879	-153.8154
8750.000000	81.417	-168.0562
8850.000000	81.628	-178.1587
9000.000000	81.752	168.5405
9120.000000	81.759	159.4517
9250.000000	81.705	150.9512
9380.000000	81.573	143.5845
9500.000000	81.335	137.8154
9620.000000	80.955	133.3838
9750.000000	80.396	130.7505
9880.000000	79.770	131.1826
10000.000000	79.293	134.7202
10150.000000	79.098	142.5474
10300.000000	79.431	151.5391
10440.000000	80.052	159.1099
10600.000000	80.911	166.3398
10750.000000	81.720	171.6660
10900.000000	82.411	175.6304
11060.000000	82.908	178.6357
11200.000000	83.052	-179.4966
11380.000000	82.702	-177.2476
11500.000000	82.091	-174.8940
11720.000000	80.270	-166.1709
11800.000000	79.441	-161.0322
12060.000000	76.456	-135.8491
12200.000000	74.809	-116.8862
12410.000000	72.473	-81.7568
12500.000000	71.574	-64.3477
12650.000000	70.316	-31.4331
12800.000000	69.539	10.9849
13150.000000	70.452	150.4609
13200.000000	70.804	161.6567
13400.000000	72.182	-168.1582
13600.000000	72.950	-147.1719
13800.000000	72.858	-126.2275
14000.000000	72.093	-99.4067
14300.000000	70.569	-38.8281
14500.000000	69.900	22.5293
14750.000000	69.906	129.1641
15000.000000	70.639	-152.1636
15250.000000	71.531	-86.1899
15500.000000	72.297	-15.0176
15750.000000	72.800	46.9624
16000.000000	72.844	96.1440
16250.000000	72.305	143.3374
16500.000000	71.285	-159.7432
16750.000000	69.961	-89.6992
17000.000000	68.450	-14.7373
17250.000000	66.844	69.9175
17500.000000	65.227	166.7622
17750.000000	63.651	-103.0254
18000.000000	62.155	-16.3965
18250.000000	60.801	87.9053
18500.000000	59.656	-165.4966
18750.000000	58.763	-77.3853
19000.000000	58.154	3.0415
19250.000000	57.827	81.6597
19500.000000	57.713	111.7964
19750.000000	57.711	-7.7236
20000.000000	57.734	13.3384
