* Measurement data measured by REW V5.31.3
* Source: Microphone (6- USB Sound Device        ), MICROPHONE (Master Volume), L, volume: 0.700
* Format: 256k Log Swept Sine, 1 sweep at -12.0 dBFS with no timing reference
* Dated: 08-Mar-2025 19:55:52
* REW Settings:
*  C-weighting compensation: Off
*  Target level: 75.0 dB
* Note: 
* Measurement: Huawei FreeArc V L
* Smoothing: 1/12 octave
* Frequency Step: 1/48 octave
* Start Frequency: 20.300 Hz
*
* Freq(Hz)	SPL(dB)	Phase(degrees)
20.299999	29.962	42.5594
20.600000	30.457	39.6763
20.900000	30.800	35.8347
21.200001	30.703	32.1027
21.400000	30.311	30.3564
21.799999	28.707	31.7119
22.000000	27.633	37.3932
22.400000	26.079	64.7603
22.700001	26.385	83.4922
23.000000	27.506	85.9568
23.299999	28.793	75.0371
23.600000	30.156	55.0286
24.000000	32.152	26.8717
24.299999	33.617	12.1921
24.700001	35.204	1.3755
25.000000	36.027	-2.0473
25.400000	36.669	-2.2362
25.799999	36.914	1.1068
26.200001	36.895	6.3424
26.500000	36.761	10.4830
26.900000	36.482	15.0945
27.200001	36.267	17.2260
27.600000	36.139	17.5261
28.000000	36.393	14.5505
28.500000	37.307	7.3915
29.000000	38.532	-0.6115
29.500000	39.629	-7.3147
30.000000	40.393	-12.6032
30.400000	40.761	-16.4040
30.700001	40.931	-19.3620
31.100000	41.093	-23.7433
31.500000	41.297	-28.6480
32.000000	41.800	-34.8808
32.500000	42.662	-40.1418
33.000000	43.733	-43.8438
33.500000	44.740	-46.1626
34.000000	45.489	-47.4186
34.500000	45.930	-47.8308
35.000000	46.136	-47.7635
35.500000	46.233	-47.9059
36.000000	46.344	-49.0046
36.500000	46.561	-51.3834
37.000000	46.937	-54.8055
37.500000	47.463	-58.7708
38.200001	48.313	-64.4552
38.700001	48.890	-68.2898
39.500000	49.701	-73.8096
40.000000	50.165	-77.0097
40.599998	50.694	-80.9128
41.200001	51.184	-85.0896
41.799999	51.643	-89.5076
42.500000	52.200	-94.6337
43.099998	52.739	-98.6840
43.700001	53.310	-102.3314
44.400002	53.904	-106.2109
45.000000	54.305	-109.2832
45.500000	54.610	-111.7143
46.200001	55.100	-115.1642
46.799999	55.546	-118.1054
47.500000	55.961	-120.4605
48.200001	56.320	-120.7971
48.700001	56.659	-120.7869
49.400002	57.227	-123.2623
50.000000	57.626	-128.8486
50.799999	57.929	-139.0873
51.500000	58.161	-147.2356
52.200001	58.500	-153.0570
53.000000	58.898	-157.9212
53.799999	59.175	-162.4447
54.500000	59.380	-166.7168
55.200001	59.638	-171.2785
56.000000	59.986	-176.4310
57.000000	60.386	177.7270
58.000000	60.725	172.2125
59.000000	61.083	166.4282
60.000000	61.481	160.5756
60.799999	61.800	156.1116
61.500000	62.063	152.3177
62.200001	62.311	148.5156
63.000000	62.587	144.1066
64.000000	62.927	138.5601
65.000000	63.238	133.0947
66.000000	63.519	127.7477
67.000000	63.798	122.4208
68.000000	64.075	117.0260
69.000000	64.329	111.5934
70.000000	64.553	106.1868
71.000000	64.749	100.8877
72.000000	64.925	95.7975
73.000000	65.098	90.9402
74.000000	65.290	86.2727
75.000000	65.512	81.7524
76.199997	65.798	76.4513
77.500000	66.098	70.7173
78.800003	66.389	64.8787
80.000000	66.660	59.4427
81.199997	66.935	54.0225
82.500000	67.229	48.1597
83.800003	67.522	42.2791
85.000000	67.790	36.8158
86.199997	68.051	31.3151
87.500000	68.321	25.3274
88.500000	68.521	20.7072
90.000000	68.806	13.7889
91.199997	69.021	8.2668
92.500000	69.243	2.2974
93.800003	69.464	-3.5939
95.000000	69.676	-8.9365
96.199997	69.890	-14.2922
97.500000	70.113	-20.2399
98.800003	70.319	-26.3071
100.000000	70.490	-31.9004
101.500000	70.677	-38.8052
103.000000	70.833	-45.6234
104.400002	70.953	-51.9296
106.000000	71.067	-59.0385
107.500000	71.160	-65.6062
109.000000	71.248	-72.1360
110.599998	71.337	-79.0712
112.000000	71.405	-85.0668
113.800003	71.475	-92.5874
115.000000	71.509	-97.4807
117.199997	71.553	-106.2941
118.000000	71.565	-109.4729
120.599998	71.570	-119.6958
122.000000	71.540	-125.0618
124.099998	71.469	-132.7971
125.000000	71.441	-135.9666
126.500000	71.408	-141.0596
128.000000	71.396	-145.9639
131.500000	71.431	-157.0162
132.000000	71.442	-158.5752
134.000000	71.500	-164.8052
136.000000	71.573	-171.0403
138.000000	71.644	-177.3003
140.000000	71.690	176.4142
143.000000	71.703	167.1080
145.000000	71.691	161.2889
147.500000	71.690	154.6580
150.000000	71.760	148.4078
152.500000	71.931	142.1853
155.000000	72.177	135.8082
157.500000	72.466	129.1375
160.000000	72.784	122.1639
162.500000	73.112	114.9619
165.000000	73.436	107.5629
167.500000	73.750	99.9486
170.000000	74.053	92.1773
172.500000	74.339	84.3107
175.000000	74.602	76.3564
177.500000	74.834	68.3325
180.000000	75.034	60.2782
182.500000	75.212	52.2537
185.000000	75.374	44.3072
187.500000	75.522	36.4421
190.000000	75.661	28.6393
192.500000	75.790	20.8467
195.000000	75.908	13.0187
197.500000	76.018	5.1769
200.000000	76.123	-2.6268
203.000000	76.247	-11.9016
206.000000	76.373	-21.0176
209.000000	76.496	-29.9383
212.000000	76.613	-38.6746
214.000000	76.686	-44.4260
218.000000	76.819	-55.8702
220.000000	76.881	-61.5815
224.000000	76.998	-72.9285
227.000000	77.075	-81.3534
230.000000	77.142	-89.7218
233.000000	77.201	-98.0444
236.000000	77.253	-106.3268
240.000000	77.310	-117.2881
243.000000	77.346	-125.4097
247.000000	77.384	-136.0914
250.000000	77.407	-144.0023
254.000000	77.430	-154.3625
258.000000	77.450	-164.5131
262.000000	77.476	-174.5459
265.000000	77.502	177.9790
269.000000	77.539	168.0881
272.000000	77.565	160.7433
276.000000	77.594	151.0520
280.000000	77.617	141.4524
285.000000	77.638	129.5710
290.000000	77.656	117.8872
295.000000	77.675	106.4253
300.000000	77.697	95.1300
304.000000	77.711	86.1721
307.000000	77.718	79.4943
311.000000	77.725	70.6671
315.000000	77.732	61.9546
320.000000	77.740	51.2186
325.000000	77.745	40.6239
330.000000	77.750	30.1499
335.000000	77.760	19.7678
340.000000	77.776	9.4648
345.000000	77.796	-0.7185
350.000000	77.814	-10.7502
355.000000	77.826	-20.6428
360.000000	77.835	-30.4387
365.000000	77.845	-40.1681
370.000000	77.853	-49.8175
375.000000	77.855	-59.3615
382.000000	77.858	-72.5017
387.000000	77.863	-81.7369
395.000000	77.869	-96.4099
400.000000	77.867	-105.5114
406.000000	77.862	-116.3136
412.000000	77.852	-126.9661
418.000000	77.837	-137.4235
425.000000	77.814	-149.3733
431.000000	77.793	-159.4905
437.000000	77.772	-169.5276
444.000000	77.748	178.9160
450.000000	77.723	169.1824
455.000000	77.699	161.2024
462.000000	77.663	150.2007
468.000000	77.638	140.9131
475.000000	77.627	130.2334
482.000000	77.635	119.7119
487.000000	77.650	112.2913
494.000000	77.676	102.0077
500.000000	77.703	93.2819
508.000000	77.748	81.7808
515.000000	77.795	71.8347
522.000000	77.846	61.9683
530.000000	77.911	50.7565
538.000000	77.980	39.6046
545.000000	78.044	29.8905
552.000000	78.112	20.2283
560.000000	78.194	9.2688
570.000000	78.297	-4.2969
580.000000	78.392	-17.7201
590.000000	78.479	-31.0302
600.000000	78.564	-44.1793
608.000000	78.634	-54.5713
615.000000	78.700	-63.5981
622.000000	78.772	-72.5730
630.000000	78.857	-82.7561
640.000000	78.965	-95.3739
650.000000	79.062	-107.8575
660.000000	79.143	-120.1969
670.000000	79.210	-132.4276
680.000000	79.273	-144.5538
690.000000	79.344	-156.5500
700.000000	79.425	-168.4194
710.000000	79.512	179.8335
720.000000	79.602	168.2158
730.000000	79.693	156.6975
740.000000	79.784	145.2778
750.000000	79.866	133.9736
762.000000	79.954	120.5227
775.000000	80.042	106.0815
788.000000	80.131	91.7913
800.000000	80.213	78.7292
812.000000	80.296	65.7976
825.000000	80.386	51.9991
838.000000	80.466	38.3844
850.000000	80.530	25.9119
862.000000	80.585	13.5144
875.000000	80.634	0.2043
885.000000	80.662	-9.9082
900.000000	80.689	-24.8042
912.000000	80.697	-36.4702
925.000000	80.699	-48.8541
938.000000	80.720	-60.9702
950.000000	80.783	-71.9878
962.000000	80.878	-83.0273
975.000000	80.971	-95.0830
988.000000	81.030	-107.0903
1000.000000	81.064	-118.0073
1015.000000	81.098	-131.3967
1030.000000	81.133	-144.5552
1044.000000	81.168	-156.6714
1060.000000	81.204	-170.3296
1075.000000	81.235	177.0151
1090.000000	81.267	164.5122
1106.000000	81.303	151.3826
1120.000000	81.339	140.0684
1138.000000	81.390	125.7339
1150.000000	81.428	116.3000
1172.000000	81.501	99.2852
1180.000000	81.529	93.1885
1206.000000	81.632	73.6882
1220.000000	81.696	63.3865
1241.000000	81.814	48.2505
1250.000000	81.882	41.8872
1265.000000	82.030	31.3821
1280.000000	82.211	20.8699
1315.000000	82.578	-3.7927
1320.000000	82.614	-7.2756
1340.000000	82.724	-21.0312
1360.000000	82.783	-34.5078
1380.000000	82.810	-47.7358
1400.000000	82.829	-60.7615
1430.000000	82.895	-79.9895
1450.000000	82.970	-92.6040
1475.000000	83.094	-108.1157
1500.000000	83.240	-123.3049
1525.000000	83.402	-138.2190
1550.000000	83.576	-152.8794
1575.000000	83.760	-167.2505
1600.000000	83.948	178.6003
1625.000000	84.138	164.6064
1650.000000	84.333	150.8381
1675.000000	84.530	137.3633
1700.000000	84.724	124.1248
1725.000000	84.914	111.0874
1750.000000	85.103	98.2371
1775.000000	85.296	85.5369
1800.000000	85.491	73.0085
1825.000000	85.682	60.6833
1850.000000	85.867	48.5474
1875.000000	86.048	36.6240
1900.000000	86.227	24.9167
1925.000000	86.408	13.3997
1950.000000	86.592	2.0576
1975.000000	86.779	-9.1152
2000.000000	86.966	-20.1230
2030.000000	87.190	-33.1492
2060.000000	87.413	-46.0049
2090.000000	87.635	-58.7166
2120.000000	87.854	-71.3091
2140.000000	87.996	-79.6221
2180.000000	88.263	-95.9832
2200.000000	88.387	-104.0181
2240.000000	88.612	-119.8147
2270.000000	88.757	-131.4565
2300.000000	88.888	-142.8821
2330.000000	89.006	-154.0623
2360.000000	89.099	-165.0564
2400.000000	89.162	-179.4421
2430.000000	89.170	170.0562
2470.000000	89.142	156.5334
2500.000000	89.098	146.7754
2540.000000	89.013	134.2717
2580.000000	88.898	122.3425
2620.000000	88.752	110.9746
2650.000000	88.628	102.8398
2690.000000	88.450	92.5764
2720.000000	88.314	85.3022
2760.000000	88.136	76.0957
2800.000000	87.957	67.4155
2850.000000	87.743	57.3679
2900.000000	87.559	48.1775
2950.000000	87.404	39.6599
3000.000000	87.255	31.8589
3040.000000	87.140	26.1980
3070.000000	87.061	22.2795
3110.000000	86.973	17.4519
3150.000000	86.911	13.0610
3200.000000	86.873	8.2161
3250.000000	86.884	4.0020
3300.000000	86.950	0.2837
3350.000000	87.078	-3.0791
3400.000000	87.254	-6.1934
3450.000000	87.455	-9.1321
3500.000000	87.662	-11.9138
3550.000000	87.866	-14.4893
3600.000000	88.069	-16.7783
3650.000000	88.285	-18.7590
3700.000000	88.528	-20.5244
3750.000000	88.789	-22.1765
3820.000000	89.143	-24.2773
3870.000000	89.367	-25.5386
3950.000000	89.688	-27.0803
4000.000000	89.868	-27.7883
4060.000000	90.042	-28.4707
4120.000000	90.132	-28.9795
4180.000000	90.115	-29.1187
4250.000000	89.982	-28.4885
4310.000000	89.805	-27.2251
4370.000000	89.583	-25.3862
4440.000000	89.271	-22.4746
4500.000000	88.971	-19.2563
4550.000000	88.708	-16.0967
4620.000000	88.310	-11.0090
4680.000000	87.932	-5.9868
4750.000000	87.446	0.7622
4820.000000	86.922	8.5198
4870.000000	86.532	14.6187
4940.000000	85.961	23.7598
5000.000000	85.431	32.0969
5080.000000	84.645	44.2446
5150.000000	83.904	56.0403
5220.000000	83.126	68.7856
5300.000000	82.181	84.6794
5380.000000	81.198	102.6062
5450.000000	80.355	119.9478
5520.000000	79.552	138.3975
5600.000000	78.686	160.8125
5700.000000	77.715	-168.8271
5800.000000	76.908	-136.6267
5900.000000	76.254	-103.1704
6000.000000	75.740	-68.3838
6080.000000	75.415	-39.7981
6150.000000	75.180	-14.2612
6220.000000	74.987	11.7959
6300.000000	74.815	42.1072
6400.000000	74.667	80.6270
6500.000000	74.583	119.7698
6600.000000	74.548	159.3376
6700.000000	74.550	-160.3936
6800.000000	74.595	-119.1963
6900.000000	74.682	-77.4802
7000.000000	74.806	-34.9854
7100.000000	74.978	8.9604
7200.000000	75.219	53.9792
7300.000000	75.524	99.1760
7400.000000	75.867	144.1077
7500.000000	76.223	-170.5796
7620.000000	76.626	-115.6729
7750.000000	76.911	-59.8990
7880.000000	76.868	-9.5933
8000.000000	76.586	33.4559
8120.000000	76.504	74.6694
8250.000000	77.312	-79.4462
8380.000000	78.831	-39.6523
8500.000000	80.120	-2.5621
8620.000000	80.995	40.1554
8750.000000	81.540	93.8850
8850.000000	81.747	138.0857
9000.000000	81.848	-146.1489
9120.000000	81.844	-80.1934
9250.000000	81.780	-8.0173
9380.000000	81.634	62.6719
9500.000000	81.388	125.7280
9620.000000	81.006	-174.6855
9750.000000	80.438	-111.5163
9880.000000	79.801	-44.7505
10000.000000	79.313	20.2091
10150.000000	79.104	-170.8094
10300.000000	79.434	-58.8041
10440.000000	80.059	12.4373
10600.000000	80.925	127.8663
10750.000000	81.743	-133.1227
10900.000000	82.442	-48.3425
11060.000000	82.949	61.6838
11200.000000	83.097	140.6809
11380.000000	82.738	-140.5418
11500.000000	82.115	-90.5667
11720.000000	80.269	8.0628
11800.000000	79.434	54.3451
12060.000000	76.448	-53.4111
12200.000000	74.808	31.3881
12410.000000	72.485	-135.5161
12500.000000	71.590	-76.9946
12650.000000	70.339	45.0997
12800.000000	69.577	152.2474
13150.000000	70.525	88.9274
13200.000000	70.878	90.7535
13400.000000	72.253	117.5426
13600.000000	73.019	174.5714
13800.000000	72.915	-127.6675
14000.000000	72.130	-102.8599
14300.000000	70.580	-0.4036
14500.000000	69.913	92.6018
14750.000000	69.931	56.8311
15000.000000	70.647	-38.5216
15250.000000	71.512	26.9498
15500.000000	72.268	38.1704
15750.000000	72.762	64.7485
16000.000000	72.789	86.7897
16250.000000	72.236	127.5226
16500.000000	71.214	132.0465
16750.000000	69.897	106.0647
17000.000000	68.394	109.5837
17250.000000	66.796	105.2273
17500.000000	65.185	98.6571
17750.000000	63.613	-167.0876
18000.000000	62.122	-134.5773
18250.000000	60.770	-141.6577
18500.000000	59.618	-156.2194
18750.000000	58.714	-163.1595
19000.000000	58.082	-161.0698
19250.000000	57.728	-159.8551
19500.000000	57.585	-143.3728
19750.000000	57.532	-85.8488
20000.000000	57.506	-62.9617
