* Measurement data measured by REW V5.31.3
* Source: Microphone (6- USB Sound Device        ), MICROPHONE (Master Volume), L, volume: 0.700
* Format: 256k Log Swept Sine, 1 sweep at -12.0 dBFS with no timing reference
* Dated: 05-Apr-2025 17:34:31
* REW Settings:
*  C-weighting compensation: Off
*  Target level: 75.0 dB
* Note: 
* Measurement: KZ Carol L
* Smoothing: 1/12 octave
* Frequency Step: 1/48 octave
* Start Frequency: 20.300 Hz
*
* Freq(Hz)	SPL(dB)	Phase(degrees)
20.299999	63.835	-140.5509
20.600000	63.904	-141.0725
20.900000	63.989	-141.7688
21.200001	64.075	-142.5573
21.400000	64.130	-143.1064
21.799999	64.230	-144.1989
22.000000	64.277	-144.7204
22.400000	64.370	-145.6850
22.700001	64.444	-146.3434
23.000000	64.524	-146.9700
23.299999	64.608	-147.5950
23.600000	64.695	-148.2445
24.000000	64.804	-149.1682
24.299999	64.877	-149.8960
24.700001	64.963	-150.8773
25.000000	65.019	-151.5941
25.400000	65.091	-152.4980
25.799999	65.162	-153.3395
26.200001	65.237	-154.1365
26.500000	65.293	-154.7186
26.900000	65.365	-155.4852
27.200001	65.417	-156.0550
27.600000	65.482	-156.8082
28.000000	65.544	-157.5595
28.500000	65.623	-158.5176
29.000000	65.704	-159.5200
29.500000	65.784	-160.5639
30.000000	65.862	-161.6155
30.400000	65.923	-162.4385
30.700001	65.967	-163.0397
31.100000	66.026	-163.8225
31.500000	66.082	-164.5909
32.000000	66.146	-165.5398
32.500000	66.203	-166.4767
33.000000	66.253	-167.3989
33.500000	66.300	-168.3064
34.000000	66.348	-169.2036
34.500000	66.400	-170.0952
35.000000	66.453	-170.9821
35.500000	66.507	-171.8602
36.000000	66.558	-172.7224
36.500000	66.606	-173.5656
37.000000	66.653	-174.3986
37.500000	66.698	-175.2396
38.200001	66.758	-176.4557
38.700001	66.801	-177.3497
39.500000	66.868	-178.7930
40.000000	66.907	-179.6826
40.599998	66.947	179.2902
41.200001	66.981	178.3315
41.799999	67.015	177.4411
42.500000	67.058	176.4487
43.099998	67.096	175.6022
43.700001	67.133	174.7411
44.400002	67.172	173.6979
45.000000	67.202	172.7545
45.500000	67.226	171.9336
46.200001	67.262	170.7618
46.799999	67.298	169.7856
47.500000	67.348	168.7361
48.200001	67.406	167.7758
48.700001	67.448	167.1011
49.400002	67.492	166.1225
50.000000	67.510	165.2593
50.799999	67.512	164.1310
51.500000	67.512	163.1776
52.200001	67.516	162.2410
53.000000	67.520	161.2064
53.799999	67.523	160.2247
54.500000	67.532	159.3708
55.200001	67.550	158.4671
56.000000	67.579	157.3488
57.000000	67.611	155.8969
58.000000	67.635	154.5173
59.000000	67.655	153.2169
60.000000	67.672	151.9395
60.799999	67.683	150.9346
61.500000	67.693	150.0649
62.200001	67.703	149.1932
63.000000	67.714	148.1843
64.000000	67.722	146.9031
65.000000	67.728	145.6312
66.000000	67.739	144.3907
67.000000	67.757	143.1486
68.000000	67.769	141.9019
69.000000	67.767	140.7009
70.000000	67.759	139.5728
71.000000	67.760	138.4863
72.000000	67.772	137.3868
73.000000	67.784	136.2624
74.000000	67.788	135.1362
75.000000	67.784	134.0141
76.199997	67.772	132.6607
77.500000	67.748	131.2004
78.800003	67.717	129.7756
80.000000	67.694	128.5244
81.199997	67.681	127.3407
82.500000	67.671	126.0249
83.800003	67.661	124.6093
85.000000	67.655	123.2649
86.199997	67.644	121.9416
87.500000	67.625	120.5297
88.500000	67.613	119.4660
90.000000	67.605	117.9455
91.199997	67.597	116.7646
92.500000	67.581	115.4552
93.800003	67.559	114.1044
95.000000	67.535	112.8440
96.199997	67.511	111.5843
97.500000	67.483	110.2343
98.800003	67.448	108.9214
100.000000	67.410	107.7555
101.500000	67.361	106.3447
103.000000	67.314	104.9219
104.400002	67.275	103.5475
106.000000	67.235	101.9352
107.500000	67.195	100.4325
109.000000	67.145	98.9852
110.599998	67.079	97.4421
112.000000	67.018	96.0308
113.800003	66.950	94.1619
115.000000	66.911	92.9293
117.199997	66.841	90.7635
118.000000	66.815	90.0099
120.599998	66.726	87.6656
122.000000	66.665	86.4000
124.099998	66.548	84.4164
125.000000	66.493	83.5355
126.500000	66.405	82.0233
128.000000	66.329	80.4684
131.500000	66.151	76.8733
132.000000	66.122	76.3766
134.000000	65.986	74.4374
136.000000	65.829	72.5513
138.000000	65.660	70.7016
140.000000	65.492	68.8936
143.000000	65.229	66.1847
145.000000	65.030	64.3878
147.500000	64.749	62.1911
150.000000	64.454	60.0097
152.500000	64.143	57.8611
155.000000	63.798	55.9298
157.500000	63.413	54.3733
160.000000	62.991	53.1742
162.500000	62.550	52.2625
165.000000	62.094	51.6848
167.500000	61.638	51.5679
170.000000	61.201	52.0062
172.500000	60.802	53.0228
175.000000	60.456	54.5764
177.500000	60.201	56.5333
180.000000	60.060	58.6885
182.500000	60.022	60.8271
185.000000	60.059	62.7474
187.500000	60.153	64.2661
190.000000	60.297	65.2829
192.500000	60.478	65.8381
195.000000	60.683	66.0258
197.500000	60.900	65.8631
200.000000	61.121	65.3430
203.000000	61.379	64.3078
206.000000	61.618	62.9470
209.000000	61.830	61.3880
212.000000	62.009	59.7455
214.000000	62.105	58.6233
218.000000	62.239	56.2550
220.000000	62.282	55.0061
224.000000	62.324	52.4438
227.000000	62.323	50.5173
230.000000	62.303	48.5959
233.000000	62.272	46.7255
236.000000	62.226	44.9495
240.000000	62.140	42.6873
243.000000	62.057	41.0300
247.000000	61.920	38.8868
250.000000	61.799	37.3821
254.000000	61.622	35.5615
258.000000	61.442	34.0054
262.000000	61.272	32.7456
265.000000	61.165	31.9926
269.000000	61.056	31.1631
272.000000	60.998	30.5593
276.000000	60.944	29.6331
280.000000	60.903	28.5212
285.000000	60.844	26.9643
290.000000	60.761	25.3251
295.000000	60.658	23.7049
300.000000	60.546	22.2786
304.000000	60.454	21.2925
307.000000	60.385	20.5905
311.000000	60.295	19.6589
315.000000	60.212	18.7371
320.000000	60.126	17.6650
325.000000	60.060	16.7341
330.000000	60.011	15.8972
335.000000	59.981	15.0559
340.000000	59.972	14.1674
345.000000	59.979	13.2060
350.000000	59.989	12.2034
355.000000	59.998	11.1774
360.000000	60.015	10.1074
365.000000	60.052	8.9775
370.000000	60.096	7.8036
375.000000	60.132	6.5996
382.000000	60.166	4.8252
387.000000	60.192	3.5103
395.000000	60.260	1.3506
400.000000	60.318	-0.0525
406.000000	60.383	-1.8407
412.000000	60.437	-3.6987
418.000000	60.478	-5.5234
425.000000	60.518	-7.5804
431.000000	60.543	-9.3383
437.000000	60.555	-11.1704
444.000000	60.554	-13.4084
450.000000	60.557	-15.3502
455.000000	60.567	-16.9279
462.000000	60.581	-19.0425
468.000000	60.592	-20.8219
475.000000	60.603	-22.9495
482.000000	60.609	-25.1764
487.000000	60.612	-26.8041
494.000000	60.614	-29.0740
500.000000	60.609	-30.9755
508.000000	60.595	-33.4548
515.000000	60.580	-35.5879
522.000000	60.563	-37.6713
530.000000	60.538	-40.0212
538.000000	60.507	-42.3936
545.000000	60.478	-44.4853
552.000000	60.449	-46.5266
560.000000	60.414	-48.7888
570.000000	60.367	-51.5547
580.000000	60.325	-54.2447
590.000000	60.291	-56.8799
600.000000	60.258	-59.4812
608.000000	60.222	-61.5646
615.000000	60.186	-63.3997
622.000000	60.148	-65.2292
630.000000	60.107	-67.2749
640.000000	60.061	-69.7568
650.000000	60.016	-72.1908
660.000000	59.966	-74.5697
670.000000	59.916	-76.9163
680.000000	59.866	-79.2137
690.000000	59.822	-81.4346
700.000000	59.794	-83.6819
710.000000	59.780	-86.0088
720.000000	59.770	-88.3582
730.000000	59.752	-90.6746
740.000000	59.728	-92.9536
750.000000	59.703	-95.2410
762.000000	59.670	-98.0332
775.000000	59.618	-100.9692
788.000000	59.543	-103.7125
800.000000	59.475	-106.0796
812.000000	59.421	-108.3146
825.000000	59.382	-110.5452
838.000000	59.381	-112.6221
850.000000	59.415	-114.6117
862.000000	59.460	-116.7596
875.000000	59.504	-119.2274
885.000000	59.532	-121.1592
900.000000	59.559	-124.0719
912.000000	59.573	-126.4426
925.000000	59.590	-129.0139
938.000000	59.621	-131.5366
950.000000	59.658	-133.8214
962.000000	59.693	-136.0759
975.000000	59.731	-138.4996
988.000000	59.774	-140.9319
1000.000000	59.825	-143.1934
1015.000000	59.896	-145.9944
1030.000000	59.963	-148.7671
1044.000000	60.024	-151.3760
1060.000000	60.097	-154.4373
1075.000000	60.162	-157.3770
1090.000000	60.227	-160.3311
1106.000000	60.300	-163.4802
1120.000000	60.366	-166.2382
1138.000000	60.451	-169.8019
1150.000000	60.503	-172.1804
1172.000000	60.589	-176.5029
1180.000000	60.621	-178.0480
1206.000000	60.739	177.0103
1220.000000	60.809	174.3447
1241.000000	60.926	170.3136
1250.000000	60.982	168.5774
1265.000000	61.081	165.6700
1280.000000	61.181	162.7647
1315.000000	61.386	156.1161
1320.000000	61.408	155.1839
1340.000000	61.463	151.5051
1360.000000	61.463	147.8870
1380.000000	61.425	144.2736
1400.000000	61.382	140.6643
1430.000000	61.348	135.3561
1450.000000	61.364	131.9034
1475.000000	61.414	127.6548
1500.000000	61.479	123.4433
1525.000000	61.560	119.2731
1550.000000	61.653	115.0900
1575.000000	61.752	110.9320
1600.000000	61.854	106.8405
1625.000000	61.961	102.8149
1650.000000	62.066	98.8461
1675.000000	62.165	94.9142
1700.000000	62.267	91.0078
1725.000000	62.373	87.0991
1750.000000	62.487	83.1968
1775.000000	62.604	79.3531
1800.000000	62.720	75.5748
1825.000000	62.831	71.8140
1850.000000	62.945	68.0547
1875.000000	63.064	64.3167
1900.000000	63.190	60.5945
1925.000000	63.318	56.8740
1950.000000	63.444	53.1580
1975.000000	63.565	49.4755
2000.000000	63.685	45.8654
2030.000000	63.837	41.5798
2060.000000	63.999	37.2408
2090.000000	64.166	32.8643
2120.000000	64.333	28.4941
2140.000000	64.445	25.5892
2180.000000	64.667	19.7980
2200.000000	64.779	16.8632
2240.000000	65.009	10.9154
2270.000000	65.191	6.5156
2300.000000	65.378	2.2316
2330.000000	65.568	-2.0173
2360.000000	65.757	-6.3165
2400.000000	66.003	-12.1210
2430.000000	66.186	-16.5079
2470.000000	66.428	-22.4190
2500.000000	66.606	-26.8981
2540.000000	66.839	-32.9039
2580.000000	67.064	-38.9210
2620.000000	67.272	-44.9612
2650.000000	67.415	-49.5206
2690.000000	67.588	-55.6386
2720.000000	67.707	-60.2395
2760.000000	67.850	-66.3763
2800.000000	67.978	-72.5030
2850.000000	68.117	-80.0618
2900.000000	68.228	-87.4404
2950.000000	68.317	-94.6434
3000.000000	68.409	-101.6431
3040.000000	68.491	-107.1692
3070.000000	68.549	-111.3134
3110.000000	68.616	-116.8679
3150.000000	68.672	-122.4362
3200.000000	68.721	-129.3403
3250.000000	68.740	-136.1423
3300.000000	68.728	-142.8242
3350.000000	68.693	-149.3632
3400.000000	68.639	-155.7273
3450.000000	68.560	-161.8929
3500.000000	68.456	-167.8525
3550.000000	68.337	-173.6279
3600.000000	68.214	-179.2546
3650.000000	68.092	175.2504
3700.000000	67.972	169.8987
3750.000000	67.856	164.7454
3820.000000	67.709	157.9712
3870.000000	67.622	153.4153
3950.000000	67.511	146.4380
4000.000000	67.449	142.2419
4060.000000	67.371	137.4160
4120.000000	67.283	132.7950
4180.000000	67.193	128.3104
4250.000000	67.097	123.1841
4310.000000	67.029	118.9121
4370.000000	66.980	114.8130
4440.000000	66.952	110.2213
4500.000000	66.956	106.3562
4550.000000	66.980	103.1511
4620.000000	67.044	98.6982
4680.000000	67.121	94.9148
4750.000000	67.230	90.4976
4820.000000	67.355	86.0193
4870.000000	67.451	82.7646
4940.000000	67.591	78.1256
5000.000000	67.713	74.0758
5080.000000	67.870	68.5875
5150.000000	67.991	63.7080
5220.000000	68.083	58.7156
5300.000000	68.146	52.7957
5380.000000	68.165	46.6864
5450.000000	68.146	41.2913
5520.000000	68.086	35.9355
5600.000000	67.949	29.9843
5700.000000	67.669	23.0426
5800.000000	67.294	16.8862
5900.000000	66.875	11.6095
6000.000000	66.451	7.1296
6080.000000	66.111	4.0679
6150.000000	65.816	1.7712
6220.000000	65.527	-0.1652
6300.000000	65.213	-1.9374
6400.000000	64.878	-3.5708
6500.000000	64.638	-4.7675
6600.000000	64.508	-5.7677
6700.000000	64.481	-6.7672
6800.000000	64.531	-7.8960
6900.000000	64.632	-9.1935
7000.000000	64.753	-10.6404
7100.000000	64.873	-12.1877
7200.000000	64.993	-13.7731
7300.000000	65.116	-15.3436
7400.000000	65.247	-16.8372
7500.000000	65.398	-18.2145
7620.000000	65.611	-19.7277
7750.000000	65.852	-21.2114
7880.000000	66.064	-22.5345
8000.000000	66.221	-23.6432
8120.000000	66.346	-24.7224
8250.000000	66.463	-26.0095
8380.000000	66.587	-27.5610
8500.000000	66.710	-29.2539
8620.000000	66.830	-31.1561
8750.000000	66.935	-33.4216
8850.000000	66.974	-35.3010
9000.000000	66.932	-38.2137
9120.000000	66.798	-40.3950
9250.000000	66.560	-42.3551
9380.000000	66.245	-43.7560
9500.000000	65.919	-44.5061
9620.000000	65.591	-44.7690
9750.000000	65.254	-44.6440
9880.000000	64.928	-44.2841
10000.000000	64.608	-43.8346
10150.000000	64.130	-42.9064
10300.000000	63.548	-41.0148
10440.000000	62.958	-37.9410
10600.000000	62.332	-32.8134
10750.000000	61.880	-26.7211
10900.000000	61.619	-19.7101
11060.000000	61.579	-11.6094
11200.000000	61.738	-4.4028
11380.000000	62.179	4.4376
11500.000000	62.608	9.8118
11720.000000	63.658	18.0566
11800.000000	64.112	20.3633
12060.000000	65.698	24.1687
12200.000000	66.466	23.2754
12410.000000	67.112	18.2390
12500.000000	67.075	15.4750
12650.000000	66.501	12.3549
12800.000000	65.451	14.2736
13150.000000	63.814	31.5701
13200.000000	63.711	32.8031
13400.000000	63.108	34.7898
13600.000000	61.979	36.7999
13800.000000	60.530	41.8234
14000.000000	59.038	50.1704
14300.000000	57.078	68.1648
14500.000000	56.088	82.9313
14750.000000	55.244	103.3081
15000.000000	54.804	124.8204
15250.000000	54.719	146.4066
15500.000000	54.950	166.5266
15750.000000	55.452	-176.8225
16000.000000	56.069	-165.0677
16250.000000	56.490	-158.1646
16500.000000	56.390	-154.3243
16750.000000	55.619	-150.5615
17000.000000	54.253	-143.9200
17250.000000	52.509	-132.5759
17500.000000	50.622	-116.0728
17750.000000	48.790	-94.9208
18000.000000	47.156	-70.0245
18250.000000	45.811	-42.2779
18500.000000	44.804	-12.7455
18750.000000	44.127	17.7346
19000.000000	43.774	49.5825
19250.000000	43.753	83.0419
19500.000000	44.010	114.1221
19750.000000	44.372	136.7472
20000.000000	44.614	148.0921
