* Measurement data measured by REW V5.31.3
* Source: Microphone (4- USB Audio Device), no input selected, R, volume: no control
* Format: 256k Log Swept Sine, 1 sweep at -12.0 dBFS with no timing reference
* Dated: 18-Oct-2024 14:19:39
* REW Settings:
*  C-weighting compensation: Off
*  Target level: 75.0 dB
* Note: 
* Measurement: Moca Solis Bass ANC L
* Smoothing: 1/12 octave
* Frequency Step: 1/48 octave
* Start Frequency: 20.300 Hz
*
* Freq(Hz)	SPL(dB)	Phase(degrees)
20.299999	74.098	24.6694
20.600000	74.002	23.9096
20.900000	73.873	22.9767
21.200001	73.731	21.9989
21.400000	73.638	21.3384
21.799999	73.470	19.9775
22.000000	73.399	19.2632
22.400000	73.281	17.7553
22.700001	73.208	16.5779
23.000000	73.143	15.4064
23.299999	73.082	14.2908
23.600000	73.024	13.2722
24.000000	72.952	12.0972
24.299999	72.901	11.3446
24.700001	72.838	10.4659
25.000000	72.789	9.8641
25.400000	72.717	9.0984
25.799999	72.634	8.3557
26.200001	72.540	7.6357
26.500000	72.466	7.1160
26.900000	72.366	6.4606
27.200001	72.295	6.0039
27.600000	72.211	5.4466
28.000000	72.147	4.9400
28.500000	72.096	4.3330
29.000000	72.067	3.6874
29.500000	72.040	2.9785
30.000000	71.995	2.2666
30.400000	71.946	1.7587
30.700001	71.908	1.4320
31.100000	71.864	1.0554
31.500000	71.834	0.7023
32.000000	71.815	0.2173
32.500000	71.801	-0.3420
33.000000	71.778	-0.9246
33.500000	71.741	-1.4654
34.000000	71.694	-1.9520
34.500000	71.642	-2.4127
35.000000	71.585	-2.8499
35.500000	71.528	-3.2100
36.000000	71.482	-3.4313
36.500000	71.460	-3.5113
37.000000	71.463	-3.5139
37.500000	71.481	-3.5165
38.200001	71.511	-3.6020
38.700001	71.533	-3.7496
39.500000	71.579	-4.1844
40.000000	71.617	-4.5765
40.599998	71.670	-5.1226
41.200001	71.724	-5.7110
41.799999	71.764	-6.3143
42.500000	71.780	-6.9680
43.099998	71.775	-7.4325
43.700001	71.774	-7.8462
44.400002	71.783	-8.3781
45.000000	71.786	-8.8945
45.500000	71.781	-9.3264
46.200001	71.770	-9.9119
46.799999	71.764	-10.4468
47.500000	71.760	-11.1301
48.200001	71.757	-11.7667
48.700001	71.760	-12.1362
49.400002	71.776	-12.5804
50.000000	71.791	-12.9957
50.799999	71.794	-13.6700
51.500000	71.779	-14.2862
52.200001	71.765	-14.8179
53.000000	71.762	-15.2941
53.799999	71.761	-15.6864
54.500000	71.749	-16.0125
55.200001	71.721	-16.3469
56.000000	71.680	-16.7381
57.000000	71.635	-17.2405
58.000000	71.603	-17.8006
59.000000	71.567	-18.3987
60.000000	71.520	-18.9441
60.799999	71.480	-19.3301
61.500000	71.444	-19.6417
62.200001	71.405	-19.9277
63.000000	71.356	-20.2219
64.000000	71.293	-20.5648
65.000000	71.233	-20.9151
66.000000	71.182	-21.2724
67.000000	71.138	-21.6200
68.000000	71.094	-21.9591
69.000000	71.050	-22.2852
70.000000	71.010	-22.5776
71.000000	70.976	-22.8274
72.000000	70.945	-23.0434
73.000000	70.912	-23.2368
74.000000	70.875	-23.4106
75.000000	70.834	-23.5752
76.199997	70.777	-23.7947
77.500000	70.712	-24.0422
78.800003	70.656	-24.2255
80.000000	70.612	-24.3316
81.199997	70.571	-24.4125
82.500000	70.524	-24.5311
83.800003	70.475	-24.7361
85.000000	70.428	-24.9531
86.199997	70.381	-25.0996
87.500000	70.326	-25.2106
88.500000	70.284	-25.3482
90.000000	70.218	-25.6159
91.199997	70.160	-25.7787
92.500000	70.095	-25.8916
93.800003	70.038	-25.9819
95.000000	69.991	-26.0476
96.199997	69.942	-26.0865
97.500000	69.889	-26.1116
98.800003	69.838	-26.1355
100.000000	69.793	-26.1677
101.500000	69.743	-26.2086
103.000000	69.702	-26.2099
104.400002	69.662	-26.1903
106.000000	69.611	-26.2410
107.500000	69.557	-26.3884
109.000000	69.500	-26.5642
110.599998	69.432	-26.7018
112.000000	69.366	-26.7725
113.800003	69.280	-26.8525
115.000000	69.225	-26.9359
117.199997	69.130	-27.1770
118.000000	69.098	-27.2812
120.599998	69.000	-27.6354
122.000000	68.949	-27.8309
124.099998	68.876	-28.0564
125.000000	68.844	-28.1151
126.500000	68.792	-28.1933
128.000000	68.741	-28.2823
131.500000	68.626	-28.5425
132.000000	68.610	-28.5717
134.000000	68.551	-28.6572
136.000000	68.491	-28.7100
138.000000	68.430	-28.7778
140.000000	68.370	-28.8848
143.000000	68.281	-29.0763
145.000000	68.225	-29.1937
147.500000	68.160	-29.3289
150.000000	68.097	-29.4807
152.500000	68.035	-29.6478
155.000000	67.974	-29.8695
157.500000	67.917	-30.1102
160.000000	67.861	-30.3159
162.500000	67.809	-30.5182
165.000000	67.764	-30.7321
167.500000	67.722	-30.9403
170.000000	67.671	-31.1273
172.500000	67.611	-31.2639
175.000000	67.551	-31.3787
177.500000	67.492	-31.5316
180.000000	67.437	-31.7158
182.500000	67.387	-31.8918
185.000000	67.340	-32.0448
187.500000	67.291	-32.1761
190.000000	67.240	-32.2870
192.500000	67.189	-32.3918
195.000000	67.140	-32.5227
197.500000	67.094	-32.6802
200.000000	67.053	-32.8478
203.000000	67.005	-33.0504
206.000000	66.955	-33.2309
209.000000	66.902	-33.3809
212.000000	66.856	-33.5335
214.000000	66.829	-33.6514
218.000000	66.770	-33.9226
220.000000	66.733	-34.0540
224.000000	66.650	-34.2436
227.000000	66.595	-34.3178
230.000000	66.554	-34.3353
233.000000	66.523	-34.3042
236.000000	66.495	-34.2490
240.000000	66.461	-34.1782
243.000000	66.445	-34.1354
247.000000	66.434	-34.0897
250.000000	66.429	-34.0661
254.000000	66.428	-34.0826
258.000000	66.434	-34.1721
262.000000	66.447	-34.2674
265.000000	66.459	-34.3259
269.000000	66.478	-34.4239
272.000000	66.492	-34.5105
276.000000	66.514	-34.5971
280.000000	66.538	-34.6336
285.000000	66.573	-34.7309
290.000000	66.613	-34.9239
295.000000	66.654	-35.1290
300.000000	66.695	-35.3695
304.000000	66.737	-35.5966
307.000000	66.775	-35.7924
311.000000	66.830	-36.0955
315.000000	66.883	-36.4422
320.000000	66.941	-36.9177
325.000000	66.995	-37.4610
330.000000	67.051	-38.1065
335.000000	67.110	-38.8416
340.000000	67.164	-39.6038
345.000000	67.215	-40.3556
350.000000	67.270	-41.1074
355.000000	67.331	-41.8396
360.000000	67.395	-42.5384
365.000000	67.460	-43.2411
370.000000	67.520	-44.0032
375.000000	67.574	-44.8440
382.000000	67.638	-46.0607
387.000000	67.680	-46.9609
395.000000	67.752	-48.4511
400.000000	67.791	-49.3588
406.000000	67.822	-50.4237
412.000000	67.832	-51.4284
418.000000	67.834	-52.3199
425.000000	67.848	-53.1919
431.000000	67.871	-53.7779
437.000000	67.896	-54.1741
444.000000	67.927	-54.4118
450.000000	67.953	-54.4589
455.000000	67.970	-54.4245
462.000000	67.983	-54.3433
468.000000	67.988	-54.2791
475.000000	67.988	-54.2100
482.000000	67.986	-54.1125
487.000000	67.988	-54.0114
494.000000	67.997	-53.8182
500.000000	68.008	-53.6195
508.000000	68.029	-53.3217
515.000000	68.048	-53.0422
522.000000	68.062	-52.7726
530.000000	68.073	-52.5011
538.000000	68.085	-52.2513
545.000000	68.095	-52.0094
552.000000	68.105	-51.7318
560.000000	68.111	-51.3553
570.000000	68.109	-50.8492
580.000000	68.094	-50.3968
590.000000	68.070	-49.9517
600.000000	68.039	-49.4638
608.000000	68.008	-49.0324
615.000000	67.977	-48.6196
622.000000	67.943	-48.1720
630.000000	67.899	-47.6343
640.000000	67.843	-46.9473
650.000000	67.795	-46.2543
660.000000	67.755	-45.5574
670.000000	67.716	-44.8717
680.000000	67.676	-44.2022
690.000000	67.636	-43.5613
700.000000	67.596	-42.8941
710.000000	67.552	-42.1142
720.000000	67.499	-41.2702
730.000000	67.438	-40.4510
740.000000	67.375	-39.6608
750.000000	67.311	-38.8642
762.000000	67.228	-37.8475
775.000000	67.133	-36.5808
788.000000	67.041	-35.0988
800.000000	66.959	-33.5988
812.000000	66.884	-32.0270
825.000000	66.810	-30.2655
838.000000	66.742	-28.4341
850.000000	66.687	-26.6952
862.000000	66.642	-24.9736
875.000000	66.601	-23.1644
885.000000	66.566	-21.7749
900.000000	66.510	-19.6038
912.000000	66.468	-17.7898
925.000000	66.427	-15.7489
938.000000	66.387	-13.6276
950.000000	66.353	-11.5768
962.000000	66.321	-9.3819
975.000000	66.292	-6.8367
988.000000	66.273	-4.1818
1000.000000	66.265	-1.7065
1015.000000	66.267	1.3296
1030.000000	66.285	4.1320
1044.000000	66.305	6.3094
1060.000000	66.308	8.0809
1075.000000	66.288	9.0397
1090.000000	66.264	9.4420
1106.000000	66.245	9.5055
1120.000000	66.228	9.4255
1138.000000	66.203	9.2493
1150.000000	66.186	9.1129
1172.000000	66.159	8.8266
1180.000000	66.151	8.7152
1206.000000	66.126	8.3827
1220.000000	66.110	8.2340
1241.000000	66.077	8.1269
1250.000000	66.063	8.1501
1265.000000	66.044	8.3097
1280.000000	66.033	8.6420
1315.000000	66.022	10.1124
1320.000000	66.021	10.3942
1340.000000	66.023	11.6818
1360.000000	66.037	13.2177
1380.000000	66.060	14.9385
1400.000000	66.091	16.6629
1430.000000	66.156	18.9599
1450.000000	66.206	20.2598
1475.000000	66.280	21.7023
1500.000000	66.378	23.0244
1525.000000	66.504	24.1969
1550.000000	66.663	25.1612
1575.000000	66.846	25.9001
1600.000000	67.042	26.3884
1625.000000	67.254	26.6710
1650.000000	67.481	26.8425
1675.000000	67.714	26.9038
1700.000000	67.949	26.8365
1725.000000	68.185	26.7229
1750.000000	68.426	26.6738
1775.000000	68.677	26.7331
1800.000000	68.937	26.8357
1825.000000	69.193	26.8486
1850.000000	69.438	26.6555
1875.000000	69.670	26.2406
1900.000000	69.892	25.6620
1925.000000	70.100	25.0156
1950.000000	70.293	24.3949
1975.000000	70.478	23.8367
2000.000000	70.660	23.3112
2030.000000	70.877	22.6405
2060.000000	71.090	21.8495
2090.000000	71.291	20.8919
2120.000000	71.479	19.7788
2140.000000	71.599	19.0084
2180.000000	71.834	17.5344
2200.000000	71.950	16.8439
2240.000000	72.173	15.5626
2270.000000	72.331	14.7054
2300.000000	72.485	13.9033
2330.000000	72.634	13.0754
2360.000000	72.777	12.1492
2400.000000	72.955	10.7509
2430.000000	73.082	9.6691
2470.000000	73.245	8.2557
2500.000000	73.357	7.1190
2540.000000	73.485	5.2640
2580.000000	73.586	2.9445
2620.000000	73.667	0.3431
2650.000000	73.719	-1.6312
2690.000000	73.778	-4.1724
2720.000000	73.815	-6.0197
2760.000000	73.854	-8.4583
2800.000000	73.881	-10.9017
2850.000000	73.896	-13.9616
2900.000000	73.892	-16.9191
2950.000000	73.876	-19.6624
3000.000000	73.848	-22.2010
3040.000000	73.823	-24.1549
3070.000000	73.804	-25.5867
3110.000000	73.777	-27.4307
3150.000000	73.749	-29.1649
3200.000000	73.721	-31.1480
3250.000000	73.706	-33.0684
3300.000000	73.696	-35.2962
3350.000000	73.682	-38.0582
3400.000000	73.666	-41.1930
3450.000000	73.649	-44.3844
3500.000000	73.634	-47.3945
3550.000000	73.621	-50.1417
3600.000000	73.611	-52.6264
3650.000000	73.602	-54.8494
3700.000000	73.594	-56.8844
3750.000000	73.583	-58.9399
3820.000000	73.563	-62.2704
3870.000000	73.540	-65.0840
3950.000000	73.488	-70.1384
4000.000000	73.451	-73.3314
4060.000000	73.405	-76.6195
4120.000000	73.351	-78.5382
4180.000000	73.300	-78.1264
4250.000000	73.263	-74.1900
4310.000000	73.225	-68.5605
4370.000000	73.171	-61.6824
4440.000000	73.096	-52.6833
4500.000000	73.027	-44.5685
4550.000000	72.963	-37.8709
4620.000000	72.857	-28.9362
4680.000000	72.754	-21.5646
4750.000000	72.627	-12.7891
4820.000000	72.499	-3.3929
4870.000000	72.407	3.7462
4940.000000	72.279	14.2277
5000.000000	72.170	23.5596
5080.000000	72.040	36.3669
5150.000000	71.952	47.8241
5220.000000	71.893	59.4571
5300.000000	71.855	72.8415
5380.000000	71.833	86.1258
5450.000000	71.809	97.5670
5520.000000	71.766	108.9035
5600.000000	71.686	122.1139
5700.000000	71.540	139.9012
5800.000000	71.338	159.7331
5900.000000	71.081	-178.5499
6000.000000	70.788	-155.8102
6080.000000	70.543	-137.4559
6150.000000	70.337	-121.4808
6220.000000	70.153	-105.6407
6300.000000	69.978	-87.7714
6400.000000	69.808	-65.9640
6500.000000	69.687	-44.6154
6600.000000	69.625	-23.0912
6700.000000	69.632	-0.8788
6800.000000	69.710	22.0571
6900.000000	69.861	45.6757
7000.000000	70.093	69.9049
7100.000000	70.403	94.5206
7200.000000	70.783	119.0980
7300.000000	71.225	143.1096
7400.000000	71.719	166.1254
7500.000000	72.245	-172.2079
7620.000000	72.862	-148.2756
7750.000000	73.405	-124.5562
7880.000000	73.675	-102.3350
8000.000000	73.587	-82.2114
8120.000000	73.154	-61.3132
8250.000000	72.355	-36.5201
8380.000000	71.330	-8.5620
8500.000000	70.298	20.2565
8620.000000	69.266	51.3992
8750.000000	68.205	86.7477
8850.000000	67.451	114.5079
9000.000000	66.440	156.7966
9120.000000	65.738	-168.2117
9250.000000	65.075	-128.5493
9380.000000	64.496	-87.5181
9500.000000	64.026	-49.1957
9620.000000	63.617	-10.8838
9750.000000	63.239	30.6847
9880.000000	62.928	72.8982
10000.000000	62.701	112.6494
10150.000000	62.502	159.2129
10300.000000	62.375	-164.5676
10440.000000	62.307	-139.3804
10600.000000	62.319	-115.6047
10750.000000	62.443	-95.1810
10900.000000	62.673	-75.5599
11060.000000	63.039	-55.1014
11200.000000	63.474	-37.8650
11380.000000	64.216	-17.6174
11500.000000	64.842	-5.7377
11720.000000	66.298	12.2380
11800.000000	66.922	17.5798
12060.000000	69.158	30.6135
12200.000000	70.324	34.5321
12410.000000	71.661	36.1946
12500.000000	71.984	35.7170
12650.000000	72.096	34.2581
12800.000000	71.660	33.2365
13150.000000	69.037	39.0657
13200.000000	68.557	41.0985
13400.000000	66.571	52.3130
13600.000000	64.670	68.2111
13800.000000	63.004	88.1484
14000.000000	61.622	110.8507
14300.000000	60.053	147.0583
14500.000000	59.308	171.4369
14750.000000	58.703	-158.6096
15000.000000	58.453	-129.3401
15250.000000	58.529	-100.7330
15500.000000	58.814	-74.7588
15750.000000	59.069	-53.9879
16000.000000	58.943	-39.5718
16250.000000	58.118	-29.5453
16500.000000	56.471	-20.3271
16750.000000	54.104	-8.5770
17000.000000	51.243	8.2404
17250.000000	48.122	30.7131
17500.000000	44.955	56.4049
17750.000000	42.061	81.6851
18000.000000	40.019	97.5942
18250.000000	39.329	-23.6693
18500.000000	39.730	0.0160
18750.000000	40.661	35.7494
19000.000000	41.793	70.5759
19250.000000	42.941	100.6973
19500.000000	43.989	125.4294
19750.000000	44.802	143.1030
20000.000000	45.230	152.1655
