* Measurement data measured by REW V5.20.13
* Source: Microphone (USB Audio Device), no input selected, L, volume: no control. Timing signal peak level -39.3 dBFS, measurement signal peak level -38.6 dBFS
* Format: 256k Log Swept Sine, 1 sweep at -12.0 dBFS using an acoustic timing reference
* Dated: 09-Apr-2023 12:29:44
* REW Settings:
*  C-weighting compensation: Off
*  Target level: 75.0 dB
* Note: 
* Measurement: OnePlus Buds Pro R
* Smoothing: 1/12 octave
* Frequency Step: 1/48 octave
* Start Frequency: 20.300 Hz
*
* Freq(Hz)	SPL(dB)	Phase(degrees)
20.299999	66.224	78.8174
20.600000	66.258	78.6034
20.900000	66.342	78.1382
21.200001	66.436	77.5898
21.400000	66.502	77.2015
21.799999	66.640	76.4080
22.000000	66.712	76.0218
22.400000	66.859	75.3022
22.700001	66.968	74.8262
23.000000	67.070	74.4136
23.299999	67.166	74.0585
23.600000	67.257	73.7448
24.000000	67.372	73.3518
24.299999	67.455	73.0410
24.700001	67.561	72.5727
25.000000	67.635	72.1784
25.400000	67.725	71.6200
25.799999	67.805	71.0737
26.200001	67.882	70.5773
26.500000	67.943	70.2369
26.900000	68.031	69.7992
27.200001	68.103	69.4573
27.600000	68.200	68.9625
28.000000	68.289	68.4330
28.500000	68.378	67.7857
29.000000	68.444	67.2305
29.500000	68.497	66.7807
30.000000	68.550	66.3866
30.400000	68.595	66.0764
30.700001	68.631	65.8423
31.100000	68.680	65.5384
31.500000	68.732	65.2566
32.000000	68.798	64.9415
32.500000	68.865	64.6487
33.000000	68.928	64.3530
33.500000	68.982	64.0536
34.000000	69.029	63.7721
34.500000	69.073	63.5268
35.000000	69.117	63.3139
35.500000	69.159	63.1148
36.000000	69.198	62.9169
36.500000	69.228	62.7224
37.000000	69.250	62.5388
37.500000	69.264	62.3659
38.200001	69.273	62.1289
38.700001	69.273	61.9648
39.500000	69.267	61.7641
40.000000	69.266	61.7095
40.599998	69.275	61.7176
41.200001	69.296	61.7719
41.799999	69.325	61.8374
42.500000	69.362	61.9221
43.099998	69.392	62.0287
43.700001	69.421	62.1870
44.400002	69.454	62.4210
45.000000	69.481	62.6199
45.500000	69.500	62.7518
46.200001	69.520	62.8674
46.799999	69.535	62.9289
47.500000	69.552	63.0323
48.200001	69.575	63.2319
48.700001	69.595	63.4403
49.400002	69.622	63.8044
50.000000	69.637	64.1600
50.799999	69.644	64.6506
51.500000	69.642	65.0531
52.200001	69.636	65.4275
53.000000	69.627	65.8714
53.799999	69.625	66.3574
54.500000	69.631	66.7671
55.200001	69.641	67.1054
56.000000	69.649	67.4091
57.000000	69.656	67.7906
58.000000	69.663	68.3007
59.000000	69.675	68.9365
60.000000	69.684	69.6050
60.799999	69.686	70.1010
61.500000	69.682	70.4996
62.200001	69.676	70.8838
63.000000	69.671	71.3288
64.000000	69.669	71.9021
65.000000	69.668	72.4720
66.000000	69.664	73.0299
67.000000	69.657	73.5943
68.000000	69.640	74.1874
69.000000	69.605	74.8356
70.000000	69.563	75.5175
71.000000	69.531	76.1581
72.000000	69.510	76.7302
73.000000	69.491	77.2701
74.000000	69.466	77.8230
75.000000	69.430	78.4297
76.199997	69.372	79.2573
77.500000	69.292	80.2335
78.800003	69.188	81.2018
80.000000	69.080	82.0975
81.199997	68.977	83.0741
82.500000	68.874	84.2122
83.800003	68.769	85.3787
85.000000	68.658	86.4839
86.199997	68.533	87.6345
87.500000	68.393	88.9345
88.500000	68.294	89.9722
90.000000	68.162	91.5760
91.199997	68.061	92.8740
92.500000	67.943	94.3003
93.800003	67.813	95.7759
95.000000	67.684	97.1945
96.199997	67.553	98.6897
97.500000	67.410	100.4280
98.800003	67.259	102.2765
100.000000	67.108	104.0535
101.500000	66.907	106.3621
103.000000	66.717	108.7256
104.400002	66.558	110.9081
106.000000	66.385	113.3729
107.500000	66.217	115.7516
109.000000	66.036	118.2338
110.599998	65.839	120.9112
112.000000	65.676	123.2438
113.800003	65.483	126.2765
115.000000	65.362	128.3674
117.199997	65.155	132.4426
118.000000	65.084	133.9946
120.599998	64.862	139.1692
122.000000	64.738	141.9835
124.099998	64.533	146.1698
125.000000	64.439	147.9485
126.500000	64.285	150.9065
128.000000	64.142	153.8879
131.500000	63.849	161.1341
132.000000	63.809	162.1970
134.000000	63.646	166.4506
136.000000	63.486	170.6890
138.000000	63.338	174.9861
140.000000	63.212	179.4253
143.000000	63.054	-173.6813
145.000000	62.937	-169.0287
147.500000	62.772	-163.2814
150.000000	62.632	-157.6810
152.500000	62.530	-152.2485
155.000000	62.433	-146.7832
157.500000	62.326	-141.0591
160.000000	62.223	-135.2023
162.500000	62.137	-129.4354
165.000000	62.067	-123.7849
167.500000	62.002	-118.1898
170.000000	61.940	-112.6036
172.500000	61.885	-106.9402
175.000000	61.846	-101.1639
177.500000	61.827	-95.3382
180.000000	61.812	-89.5594
182.500000	61.780	-83.8625
185.000000	61.729	-78.2304
187.500000	61.671	-72.5970
190.000000	61.611	-66.8923
192.500000	61.553	-61.1708
195.000000	61.503	-55.5110
197.500000	61.467	-49.8910
200.000000	61.448	-44.2818
203.000000	61.450	-37.5947
206.000000	61.479	-30.9376
209.000000	61.527	-24.2623
212.000000	61.582	-17.5394
214.000000	61.615	-13.0183
218.000000	61.665	-3.9353
220.000000	61.684	0.5801
224.000000	61.703	9.5127
227.000000	61.703	16.1581
230.000000	61.696	22.7562
233.000000	61.689	29.3197
236.000000	61.691	35.9183
240.000000	61.705	44.8711
243.000000	61.709	51.6527
247.000000	61.702	60.6698
250.000000	61.695	67.4491
254.000000	61.697	76.6171
258.000000	61.702	85.9662
262.000000	61.698	95.5110
265.000000	61.690	102.7966
269.000000	61.679	112.6134
272.000000	61.675	120.0029
276.000000	61.673	129.8757
280.000000	61.674	139.8146
285.000000	61.672	152.3972
290.000000	61.665	165.1665
295.000000	61.661	178.1929
300.000000	61.665	-168.4925
304.000000	61.670	-157.6975
307.000000	61.674	-149.5336
311.000000	61.676	-138.5536
315.000000	61.672	-127.4680
320.000000	61.659	-113.4994
325.000000	61.653	-99.4575
330.000000	61.654	-85.3367
335.000000	61.658	-71.0911
340.000000	61.667	-56.7283
345.000000	61.681	-42.3380
350.000000	61.694	-27.9567
355.000000	61.706	-13.5459
360.000000	61.725	0.9465
365.000000	61.743	15.5251
370.000000	61.747	30.1678
375.000000	61.736	44.8452
382.000000	61.714	65.3638
387.000000	61.704	80.0296
395.000000	61.717	103.7505
400.000000	61.740	118.6932
406.000000	61.766	136.6127
412.000000	61.786	154.5208
418.000000	61.799	172.4807
425.000000	61.810	-166.4216
431.000000	61.815	-148.2297
437.000000	61.807	-130.0144
444.000000	61.779	-108.7997
450.000000	61.764	-90.6454
455.000000	61.764	-75.4922
462.000000	61.768	-54.1858
468.000000	61.759	-35.8143
475.000000	61.731	-14.2917
482.000000	61.686	7.2078
487.000000	61.651	22.5424
494.000000	61.604	44.0809
500.000000	61.568	62.6920
508.000000	61.530	87.7708
515.000000	61.510	109.9673
522.000000	61.491	132.3894
530.000000	61.449	158.2010
538.000000	61.387	-175.8817
545.000000	61.328	-153.1521
552.000000	61.268	-130.3523
560.000000	61.196	-104.1920
570.000000	61.100	-71.3895
580.000000	61.015	-38.4324
590.000000	60.942	-5.3038
600.000000	60.866	27.9861
608.000000	60.803	54.7450
615.000000	60.747	78.2764
622.000000	60.688	101.9417
630.000000	60.619	129.1353
640.000000	60.535	163.2979
650.000000	60.459	-162.3796
660.000000	60.400	-127.8729
670.000000	60.362	-93.1613
680.000000	60.324	-58.2764
690.000000	60.273	-23.2310
700.000000	60.223	11.9448
710.000000	60.190	47.1874
720.000000	60.173	82.5122
730.000000	60.166	117.9819
740.000000	60.161	153.5791
750.000000	60.139	-170.7627
762.000000	60.089	-127.8760
775.000000	60.033	-81.1748
788.000000	59.999	-34.2451
800.000000	59.994	9.1904
812.000000	60.003	52.7197
825.000000	60.018	99.9692
838.000000	60.041	147.3628
850.000000	60.068	-168.7925
862.000000	60.098	-124.9302
875.000000	60.136	-77.3601
885.000000	60.173	-40.6519
900.000000	60.241	14.6128
912.000000	60.305	58.9692
925.000000	60.373	107.2178
938.000000	60.431	155.6875
950.000000	60.482	-159.4622
962.000000	60.539	-114.5569
975.000000	60.612	-65.8071
988.000000	60.703	-16.8826
1000.000000	60.800	28.4546
1015.000000	60.922	85.3564
1030.000000	61.031	142.5132
1044.000000	61.129	-163.9341
1060.000000	61.242	-102.5530
1075.000000	61.356	-44.9019
1090.000000	61.480	12.7588
1106.000000	61.618	74.2222
1120.000000	61.745	128.0220
1138.000000	61.911	-162.6965
1150.000000	62.014	-116.4272
1172.000000	62.193	-31.3730
1180.000000	62.260	-0.3486
1206.000000	62.485	100.7549
1220.000000	62.609	155.2871
1241.000000	62.815	-122.7744
1250.000000	62.912	-87.5713
1265.000000	63.078	-28.7554
1280.000000	63.241	30.2173
1315.000000	63.568	168.1860
1320.000000	63.608	-172.0688
1340.000000	63.747	-92.9731
1360.000000	63.841	-13.6660
1380.000000	63.893	65.8682
1400.000000	63.930	145.6211
1430.000000	64.010	-94.2456
1450.000000	64.100	-13.7227
1475.000000	64.253	87.3872
1500.000000	64.434	-171.1694
1525.000000	64.630	-69.5015
1550.000000	64.823	32.3887
1575.000000	65.009	134.5317
1600.000000	65.192	-123.1094
1625.000000	65.370	-20.5977
1650.000000	65.544	82.1294
1675.000000	65.720	-174.8320
1700.000000	65.913	-71.4517
1725.000000	66.124	32.2319
1750.000000	66.336	136.1733
1775.000000	66.535	-119.6812
1800.000000	66.725	-15.3853
1825.000000	66.905	89.0171
1850.000000	67.077	-166.4756
1875.000000	67.246	-61.7832
1900.000000	67.419	43.2061
1925.000000	67.596	148.5635
1950.000000	67.768	-105.7139
1975.000000	67.927	0.3267
2000.000000	68.074	106.6494
2030.000000	68.243	-125.4541
2060.000000	68.409	2.7090
2090.000000	68.565	131.1528
2120.000000	68.708	-100.0547
2140.000000	68.795	-13.9873
2180.000000	68.953	158.5806
2200.000000	69.025	-114.9580
2240.000000	69.149	58.2871
2270.000000	69.223	-171.4482
2300.000000	69.281	-40.8584
2330.000000	69.317	90.0488
2360.000000	69.332	-138.7363
2400.000000	69.324	36.7441
2430.000000	69.305	168.7949
2470.000000	69.266	-14.5449
2500.000000	69.224	118.4004
2540.000000	69.154	-63.6953
2580.000000	69.064	114.9326
2620.000000	68.957	-65.7734
2650.000000	68.866	69.0859
2690.000000	68.736	-110.6367
2720.000000	68.634	24.9404
2760.000000	68.495	-153.7119
2800.000000	68.357	28.2939
2850.000000	68.178	-103.4736
2900.000000	67.998	125.4678
2950.000000	67.823	-4.8037
3000.000000	67.650	-134.2939
3040.000000	67.514	50.6543
3070.000000	67.413	-170.3154
3110.000000	67.279	15.5078
3150.000000	67.152	-158.1270
3200.000000	67.007	75.6201
3250.000000	66.868	-49.7607
3300.000000	66.725	-174.3457
3350.000000	66.589	61.6523
3400.000000	66.462	-61.9287
3450.000000	66.333	174.9531
3500.000000	66.205	52.4570
3550.000000	66.081	-69.3057
3600.000000	65.961	169.6738
3650.000000	65.843	49.3535
3700.000000	65.731	-70.2773
3750.000000	65.631	170.8379
3820.000000	65.531	149.7832
3870.000000	65.481	32.7920
3950.000000	65.424	62.8164
4000.000000	65.423	-52.8301
4060.000000	65.464	-119.5586
4120.000000	65.517	172.9141
4180.000000	65.549	103.8945
4250.000000	65.549	81.5859
4310.000000	65.542	10.4590
4370.000000	65.559	-60.4785
4440.000000	65.626	-83.1113
4500.000000	65.715	-154.5547
4550.000000	65.798	84.9668
4620.000000	65.924	58.6641
4680.000000	66.051	-16.5391
4750.000000	66.223	-45.3789
4820.000000	66.420	-75.4551
4870.000000	66.572	159.2207
4940.000000	66.789	126.1406
5000.000000	66.984	45.0137
5080.000000	67.268	55.7188
5150.000000	67.535	19.6543
5220.000000	67.811	-16.5059
5300.000000	68.130	-6.2852
5380.000000	68.457	4.3066
5450.000000	68.754	-31.0645
5520.000000	69.051	-66.2285
5600.000000	69.372	-54.9023
5700.000000	69.716	49.2324
5800.000000	69.971	153.3145
5900.000000	70.125	-102.4668
6000.000000	70.159	2.3008
6080.000000	70.084	14.7578
6150.000000	69.940	-18.7695
6220.000000	69.729	-51.6855
6300.000000	69.421	-37.1270
6400.000000	68.957	71.9727
6500.000000	68.439	-178.0938
6600.000000	67.907	-67.1992
6700.000000	67.393	44.8320
6800.000000	66.909	158.0430
6900.000000	66.471	-87.4102
7000.000000	66.107	28.7344
7100.000000	65.827	146.3926
7200.000000	65.630	-94.8789
7300.000000	65.516	24.4863
7400.000000	65.489	144.2969
7500.000000	65.558	-95.5234
7620.000000	65.750	121.0898
7750.000000	66.027	25.9219
7880.000000	66.294	-69.4219
8000.000000	66.476	146.9141
8120.000000	66.556	2.9180
8250.000000	66.491	-93.4180
8380.000000	66.224	170.1953
8500.000000	65.768	26.3516
8620.000000	65.103	-116.2500
8750.000000	64.181	151.5586
8850.000000	63.377	-83.5586
9000.000000	62.125	-73.1641
9120.000000	61.176	153.3008
9250.000000	60.260	70.0117
9380.000000	59.470	-12.3203
9500.000000	58.847	-142.8984
9620.000000	58.310	87.2617
9750.000000	57.797	7.2344
9880.000000	57.331	-72.3320
10000.000000	56.943	159.2227
10150.000000	56.521	179.5742
10300.000000	56.176	-158.4844
10440.000000	55.917	175.4062
10600.000000	55.682	-110.4258
10750.000000	55.514	-84.9219
10900.000000	55.401	-58.2461
11060.000000	55.341	19.7969
11200.000000	55.333	-0.5547
11380.000000	55.372	-179.4570
11500.000000	55.434	61.9570
11720.000000	55.623	85.3555
11800.000000	55.706	126.7227
12060.000000	55.999	-8.5703
12200.000000	56.172	-25.6133
12410.000000	56.467	-49.9336
12500.000000	56.614	43.1055
12650.000000	56.886	78.9844
12800.000000	57.183	115.6172
13150.000000	57.945	82.3203
13200.000000	58.062	-25.3789
13400.000000	58.580	-97.0156
13600.000000	59.230	-169.9766
13800.000000	60.023	116.4258
14000.000000	60.855	42.2812
14300.000000	61.824	108.7344
14500.000000	62.062	31.8047
14750.000000	61.739	-153.1172
15000.000000	60.748	26.4141
15250.000000	59.247	-148.6641
15500.000000	57.438	39.5000
15750.000000	55.531	-134.9453
16000.000000	53.764	34.0000
16250.000000	52.328	167.2969
16500.000000	51.290	-85.8516
16750.000000	50.600	41.4688
17000.000000	50.134	-151.2891
17250.000000	49.731	37.7188
17500.000000	49.220	-139.0078
17750.000000	48.492	-5.2656
18000.000000	47.586	-10.5781
18250.000000	46.679	53.4375
18500.000000	45.953	1.9375
18750.000000	45.504	-3.1328
19000.000000	45.297	-113.6094
19250.000000	45.194	-161.1094
19500.000000	45.060	71.7891
19750.000000	44.805	74.8594
