* Measurement data measured by REW V5.31.3
* Source: Microphone (4- USB Audio Device), MICROPHONE (Master Volume), L, volume: 0.250
* Format: 256k Log Swept Sine, 1 sweep at -12.0 dBFS with no timing reference
* Dated: 23-Aug-2024 15:29:38
* REW Settings:
*  C-weighting compensation: Off
*  Target level: 75.0 dB
* Note: 
* Measurement: Primark Earbuds L
* Smoothing: 1/12 octave
* Frequency Step: 1/48 octave
* Start Frequency: 20.300 Hz
*
* Freq(Hz)	SPL(dB)	Phase(degrees)
20.299999	70.632	-32.8090
20.600000	70.680	-32.8580
20.900000	70.797	-33.0389
21.200001	71.002	-33.4478
21.400000	71.185	-33.8774
21.799999	71.630	-35.0928
22.000000	71.869	-35.8237
22.400000	72.327	-37.3185
22.700001	72.627	-38.2885
23.000000	72.882	-39.0079
23.299999	73.099	-39.4437
23.600000	73.291	-39.6381
24.000000	73.524	-39.6908
24.299999	73.689	-39.7036
24.700001	73.894	-39.7850
25.000000	74.036	-39.8815
25.400000	74.217	-39.9778
25.799999	74.404	-39.9886
26.200001	74.609	-39.9786
26.500000	74.770	-40.0461
26.900000	74.977	-40.3281
27.200001	75.113	-40.6852
27.600000	75.263	-41.2697
28.000000	75.393	-41.8521
28.500000	75.574	-42.4785
29.000000	75.806	-43.0609
29.500000	76.064	-43.6831
30.000000	76.307	-44.2411
30.400000	76.486	-44.5407
30.700001	76.624	-44.6970
31.100000	76.822	-44.9389
31.500000	77.035	-45.3739
32.000000	77.286	-46.2424
32.500000	77.494	-47.1946
33.000000	77.668	-47.8488
33.500000	77.838	-48.0986
34.000000	78.004	-48.1051
34.500000	78.149	-47.9950
35.000000	78.289	-47.7864
35.500000	78.475	-47.6299
36.000000	78.730	-47.8525
36.500000	79.008	-48.5969
37.000000	79.246	-49.5927
37.500000	79.431	-50.4289
38.200001	79.645	-51.1200
38.700001	79.766	-51.4652
39.500000	79.886	-51.7360
40.000000	79.977	-51.6424
40.599998	80.164	-51.7073
41.200001	80.362	-52.3823
41.799999	80.486	-53.2624
42.500000	80.624	-53.7592
43.099998	80.842	-54.0529
43.700001	81.079	-54.7493
44.400002	81.238	-55.5705
45.000000	81.331	-55.7198
45.500000	81.456	-55.7318
46.200001	81.686	-56.2460
46.799999	81.874	-56.7109
47.500000	82.167	-56.2352
48.200001	82.619	-55.1690
48.700001	82.939	-54.8605
49.400002	83.191	-55.3137
50.000000	83.196	-56.0998
50.799999	83.072	-57.2548
51.500000	83.009	-58.3625
52.200001	83.043	-59.3612
53.000000	83.183	-60.0112
53.799999	83.374	-60.2495
54.500000	83.535	-60.4041
55.200001	83.679	-60.6602
56.000000	83.826	-61.1230
57.000000	83.981	-61.8044
58.000000	84.130	-62.3302
59.000000	84.304	-62.7341
60.000000	84.480	-63.1535
60.799999	84.610	-63.4863
61.500000	84.723	-63.7834
62.200001	84.842	-64.0850
63.000000	84.986	-64.3904
64.000000	85.174	-64.6906
65.000000	85.355	-64.9569
66.000000	85.530	-65.2100
67.000000	85.706	-65.4827
68.000000	85.881	-65.7893
69.000000	86.054	-66.0782
70.000000	86.224	-66.3213
71.000000	86.383	-66.5499
72.000000	86.531	-66.8134
73.000000	86.678	-67.1641
74.000000	86.824	-67.5580
75.000000	86.968	-67.8907
76.199997	87.140	-68.2336
77.500000	87.327	-68.5692
78.800003	87.522	-68.8435
80.000000	87.691	-69.0902
81.199997	87.846	-69.3874
82.500000	88.013	-69.8206
83.800003	88.181	-70.2358
85.000000	88.334	-70.5036
86.199997	88.486	-70.6740
87.500000	88.654	-70.8648
88.500000	88.788	-71.0667
90.000000	88.996	-71.4315
91.199997	89.157	-71.7247
92.500000	89.323	-71.9923
93.800003	89.489	-72.2184
95.000000	89.645	-72.4238
96.199997	89.795	-72.6433
97.500000	89.947	-72.9181
98.800003	90.094	-73.2619
100.000000	90.230	-73.6209
101.500000	90.404	-74.0458
103.000000	90.580	-74.4422
104.400002	90.743	-74.8089
106.000000	90.928	-75.2035
107.500000	91.105	-75.5266
109.000000	91.285	-75.8075
110.599998	91.469	-76.1271
112.000000	91.624	-76.4485
113.800003	91.823	-76.8646
115.000000	91.958	-77.1190
117.199997	92.207	-77.5618
118.000000	92.298	-77.7216
120.599998	92.586	-78.2125
122.000000	92.738	-78.4562
124.099998	92.962	-78.8402
125.000000	93.056	-79.0285
126.500000	93.211	-79.3767
128.000000	93.365	-79.7525
131.500000	93.720	-80.5778
132.000000	93.770	-80.6852
134.000000	93.966	-81.1055
136.000000	94.159	-81.5187
138.000000	94.349	-81.9204
140.000000	94.543	-82.3238
143.000000	94.839	-82.9333
145.000000	95.039	-83.3373
147.500000	95.288	-83.8214
150.000000	95.531	-84.2848
152.500000	95.772	-84.7633
155.000000	96.011	-85.2701
157.500000	96.238	-85.7948
160.000000	96.456	-86.3498
162.500000	96.675	-86.9488
165.000000	96.899	-87.5834
167.500000	97.121	-88.2669
170.000000	97.336	-89.0078
172.500000	97.546	-89.7624
175.000000	97.752	-90.5033
177.500000	97.957	-91.2518
180.000000	98.158	-92.0337
182.500000	98.354	-92.8484
185.000000	98.549	-93.6821
187.500000	98.745	-94.5247
190.000000	98.943	-95.3713
192.500000	99.148	-96.2175
195.000000	99.356	-97.0624
197.500000	99.566	-97.9099
200.000000	99.775	-98.7667
203.000000	100.024	-99.8097
206.000000	100.273	-100.8725
209.000000	100.519	-101.9495
212.000000	100.761	-103.0303
214.000000	100.921	-103.7567
218.000000	101.239	-105.2487
220.000000	101.398	-106.0202
224.000000	101.716	-107.5978
227.000000	101.953	-108.7846
230.000000	102.189	-109.9675
233.000000	102.423	-111.1617
236.000000	102.654	-112.3795
240.000000	102.955	-114.0384
243.000000	103.175	-115.3080
247.000000	103.460	-117.0227
250.000000	103.669	-118.3194
254.000000	103.945	-120.0640
258.000000	104.218	-121.8225
262.000000	104.487	-123.6061
265.000000	104.687	-124.9660
269.000000	104.951	-126.8028
272.000000	105.145	-128.1951
276.000000	105.399	-130.0774
280.000000	105.646	-132.0086
285.000000	105.948	-134.5088
290.000000	106.243	-137.1035
295.000000	106.528	-139.7769
300.000000	106.803	-142.5017
304.000000	107.016	-144.7173
307.000000	107.172	-146.3994
311.000000	107.374	-148.6632
315.000000	107.569	-150.9428
320.000000	107.803	-153.8051
325.000000	108.027	-156.6770
330.000000	108.240	-159.5673
335.000000	108.440	-162.4869
340.000000	108.627	-165.4319
345.000000	108.804	-168.3849
350.000000	108.969	-171.3415
355.000000	109.124	-174.3099
360.000000	109.268	-177.2930
365.000000	109.400	179.7211
370.000000	109.522	176.7565
375.000000	109.635	173.8249
382.000000	109.783	169.7582
387.000000	109.881	166.8680
395.000000	110.024	162.2676
400.000000	110.102	159.4096
406.000000	110.184	156.0032
412.000000	110.254	152.6331
418.000000	110.316	149.3195
425.000000	110.382	145.5524
431.000000	110.432	142.4135
437.000000	110.476	139.3510
444.000000	110.525	135.8687
450.000000	110.567	132.9531
455.000000	110.606	130.5627
462.000000	110.668	127.2678
468.000000	110.734	124.4811
475.000000	110.827	121.2326
482.000000	110.934	117.9306
487.000000	111.015	115.5157
494.000000	111.129	112.0521
500.000000	111.222	109.0212
508.000000	111.334	104.9150
515.000000	111.421	101.2749
522.000000	111.498	97.6046
530.000000	111.574	93.3849
538.000000	111.641	89.1384
545.000000	111.694	85.4038
552.000000	111.743	81.6543
560.000000	111.795	77.3469
570.000000	111.848	71.9260
580.000000	111.885	66.4518
590.000000	111.903	60.9024
600.000000	111.900	55.2818
608.000000	111.886	50.7497
615.000000	111.865	46.7656
622.000000	111.835	42.7642
630.000000	111.787	38.1706
640.000000	111.702	32.4163
650.000000	111.585	26.6794
660.000000	111.442	21.0113
670.000000	111.275	15.4781
680.000000	111.082	10.1240
690.000000	110.863	4.9615
700.000000	110.614	0.0196
710.000000	110.340	-4.6213
720.000000	110.054	-8.8712
730.000000	109.770	-12.6813
740.000000	109.488	-16.0553
750.000000	109.201	-19.0519
762.000000	108.833	-22.2896
775.000000	108.406	-25.5144
788.000000	107.962	-28.4903
800.000000	107.548	-31.0125
812.000000	107.130	-33.3243
825.000000	106.674	-35.6020
838.000000	106.226	-37.6295
850.000000	105.827	-39.2690
862.000000	105.445	-40.7039
875.000000	105.043	-42.0750
885.000000	104.739	-43.0475
900.000000	104.293	-44.4413
912.000000	103.947	-45.5192
925.000000	103.582	-46.6519
938.000000	103.228	-47.7440
950.000000	102.910	-48.7004
962.000000	102.600	-49.5866
975.000000	102.275	-50.4355
988.000000	101.962	-51.1531
1000.000000	101.687	-51.7256
1015.000000	101.358	-52.3638
1030.000000	101.040	-52.9354
1044.000000	100.753	-53.4119
1060.000000	100.433	-53.9064
1075.000000	100.142	-54.3527
1090.000000	99.859	-54.8018
1106.000000	99.560	-55.2866
1120.000000	99.302	-55.7026
1138.000000	98.977	-56.1899
1150.000000	98.768	-56.4566
1172.000000	98.397	-56.7883
1180.000000	98.266	-56.8616
1206.000000	97.854	-57.0066
1220.000000	97.642	-57.0776
1241.000000	97.336	-57.2560
1250.000000	97.209	-57.3975
1265.000000	96.993	-57.7881
1280.000000	96.746	-58.4271
1315.000000	95.852	-60.0088
1320.000000	95.690	-60.0133
1340.000000	95.051	-59.1979
1360.000000	94.535	-57.7175
1380.000000	94.129	-56.3688
1400.000000	93.764	-55.2890
1430.000000	93.223	-53.8519
1450.000000	92.864	-52.8297
1475.000000	92.420	-51.3577
1500.000000	91.982	-49.5966
1525.000000	91.564	-47.4778
1550.000000	91.183	-44.8965
1575.000000	90.838	-41.7666
1600.000000	90.540	-38.0316
1625.000000	90.314	-33.7083
1650.000000	90.175	-28.9415
1675.000000	90.126	-23.9504
1700.000000	90.177	-18.8518
1725.000000	90.353	-13.7238
1750.000000	90.660	-8.7561
1775.000000	91.085	-4.2438
1800.000000	91.612	-0.4275
1825.000000	92.222	2.5950
1850.000000	92.897	4.8112
1875.000000	93.615	6.2822
1900.000000	94.359	7.1108
1925.000000	95.113	7.3723
1950.000000	95.856	7.0656
1975.000000	96.566	6.1344
2000.000000	97.221	4.5265
2030.000000	97.906	1.7352
2060.000000	98.458	-1.7853
2090.000000	98.870	-5.6940
2120.000000	99.139	-9.6487
2140.000000	99.238	-12.1960
2180.000000	99.252	-16.9235
2200.000000	99.176	-19.0503
2240.000000	98.893	-22.7255
2270.000000	98.596	-24.9309
2300.000000	98.251	-26.6587
2330.000000	97.877	-27.9087
2360.000000	97.491	-28.6363
2400.000000	96.977	-28.7381
2430.000000	96.595	-28.2137
2470.000000	96.099	-26.8641
2500.000000	95.742	-25.4529
2540.000000	95.288	-23.1233
2580.000000	94.861	-20.3487
2620.000000	94.460	-17.2034
2650.000000	94.174	-14.6330
2690.000000	93.813	-10.9353
2720.000000	93.555	-7.9906
2760.000000	93.226	-3.9036
2800.000000	92.912	0.3206
2850.000000	92.547	5.7933
2900.000000	92.206	11.4572
2950.000000	91.875	17.2909
3000.000000	91.551	23.5458
3040.000000	91.302	29.1230
3070.000000	91.123	33.7004
3110.000000	90.892	40.2412
3150.000000	90.664	47.0994
3200.000000	90.377	55.8861
3250.000000	90.087	64.8345
3300.000000	89.795	74.0015
3350.000000	89.504	83.4229
3400.000000	89.214	93.1050
3450.000000	88.925	102.9562
3500.000000	88.628	112.7299
3550.000000	88.319	122.4161
3600.000000	88.013	132.3325
3650.000000	87.723	142.7792
3700.000000	87.468	153.9565
3750.000000	87.277	166.0864
3820.000000	87.231	-174.6613
3870.000000	87.474	-158.9342
3950.000000	88.540	-131.5486
4000.000000	89.648	-114.6880
4060.000000	91.335	-96.3766
4120.000000	93.254	-81.3266
4180.000000	95.218	-70.1673
4250.000000	97.361	-61.9222
4310.000000	98.946	-58.1574
4370.000000	100.232	-56.3239
4440.000000	101.330	-55.1896
4500.000000	101.960	-54.1517
4550.000000	102.309	-52.8792
4620.000000	102.605	-50.1281
4680.000000	102.750	-46.5933
4750.000000	102.884	-40.9054
4820.000000	103.059	-33.6550
4870.000000	103.238	-27.7778
4940.000000	103.587	-19.0302
5000.000000	103.992	-11.4019
5080.000000	104.697	-1.5446
5150.000000	105.469	6.3249
5220.000000	106.361	13.0333
5300.000000	107.458	18.8191
5380.000000	108.505	22.1263
5450.000000	109.226	22.6855
5520.000000	109.623	21.1714
5600.000000	109.561	17.8174
5700.000000	108.693	13.9789
5800.000000	107.160	13.9748
5900.000000	105.287	19.6311
6000.000000	103.361	30.6780
6080.000000	101.909	42.3853
6150.000000	100.742	53.9968
6220.000000	99.684	66.5046
6300.000000	98.605	81.6265
6400.000000	97.431	101.5798
6500.000000	96.427	122.5634
6600.000000	95.571	144.1589
6700.000000	94.838	165.7461
6800.000000	94.210	-173.0414
6900.000000	93.682	-152.1227
7000.000000	93.255	-131.1740
7100.000000	92.921	-109.8914
7200.000000	92.675	-88.1301
7300.000000	92.516	-65.8935
7400.000000	92.441	-43.4368
7500.000000	92.442	-21.0842
7620.000000	92.545	5.6921
7750.000000	92.792	35.1049
7880.000000	93.196	64.8439
8000.000000	93.718	91.8073
8120.000000	94.380	117.8601
8250.000000	95.231	144.9891
8380.000000	96.117	169.7343
8500.000000	96.818	-170.9001
8620.000000	97.240	-155.0097
8750.000000	97.227	-140.2908
8850.000000	96.837	-129.3100
9000.000000	95.674	-111.1046
9120.000000	94.362	-93.7395
9250.000000	92.724	-71.0458
9380.000000	91.017	-43.8344
9500.000000	89.479	-15.0720
9620.000000	88.032	16.5919
9750.000000	86.602	53.3312
9880.000000	85.326	91.1057
10000.000000	84.277	125.8596
10150.000000	83.120	169.3047
10300.000000	82.106	-147.1700
10440.000000	81.268	-106.6646
10600.000000	80.424	-59.5769
10750.000000	79.733	-13.3569
10900.000000	79.134	34.5818
11060.000000	78.588	86.2902
11200.000000	78.172	131.3435
11380.000000	77.702	-169.8925
11500.000000	77.432	-129.7147
11720.000000	77.032	-58.3303
11800.000000	76.917	-33.6558
12060.000000	76.632	49.4744
12200.000000	76.546	103.0681
12410.000000	76.501	-164.4875
12500.000000	76.510	-125.9949
12650.000000	76.570	-65.4600
12800.000000	76.683	-8.3613
13150.000000	77.069	117.7832
13200.000000	77.133	135.9585
13400.000000	77.417	-148.4194
13600.000000	77.763	-62.7275
13800.000000	78.153	24.2258
14000.000000	78.570	96.7563
14300.000000	79.326	-161.1748
14500.000000	80.087	-61.4753
14750.000000	81.467	72.9009
15000.000000	83.196	179.3152
15250.000000	84.933	-98.8481
15500.000000	86.270	-38.9209
15750.000000	86.945	14.9763
16000.000000	86.962	70.6758
16250.000000	86.553	137.5620
16500.000000	86.035	-132.1155
16750.000000	85.692	-34.6841
17000.000000	85.676	65.0457
17250.000000	85.926	-177.7539
17500.000000	86.174	-104.8308
17750.000000	86.089	-50.5964
18000.000000	85.443	-2.2781
18250.000000	84.190	46.4534
18500.000000	82.455	101.5620
18750.000000	80.445	-159.9104
19000.000000	78.376	-18.4268
19250.000000	76.427	54.8711
19500.000000	74.720	136.7236
19750.000000	73.376	-119.1870
20000.000000	72.608	-82.3340
