* Measurement data measured by REW V5.30
* Source: Microphone (4- USB Audio Device), MICROPHONE (Master Volume), R, volume: 0.250
* Format: 256k Log Swept Sine, 1 sweep at -12.0 dBFS with no timing reference
* Dated: 27-Dec-2023 11:29:53
* REW Settings:
*  C-weighting compensation: Off
*  Target level: 75.0 dB
* Note: 
* Measurement: Realme Buds Air 5 Pro L
* Smoothing: 1/12 octave
* Frequency Step: 1/48 octave
* Start Frequency: 20.300 Hz
*
* Freq(Hz)	SPL(dB)	Phase(degrees)
20.299999	73.752	-52.5555
20.600000	73.821	-52.6952
20.900000	73.907	-52.8719
21.200001	73.998	-53.0690
21.400000	74.060	-53.2085
21.799999	74.188	-53.4970
22.000000	74.254	-53.6394
22.400000	74.393	-53.9076
22.700001	74.501	-54.0906
23.000000	74.610	-54.2621
23.299999	74.716	-54.4294
23.600000	74.816	-54.5983
24.000000	74.937	-54.8284
24.299999	75.016	-55.0019
24.700001	75.112	-55.2287
25.000000	75.181	-55.3947
25.400000	75.273	-55.6137
25.799999	75.370	-55.8310
26.200001	75.471	-56.0393
26.500000	75.548	-56.1815
26.900000	75.650	-56.3443
27.200001	75.724	-56.4469
27.600000	75.818	-56.5677
28.000000	75.904	-56.6843
28.500000	75.998	-56.8334
29.000000	76.081	-56.9713
29.500000	76.159	-57.0727
30.000000	76.241	-57.1338
30.400000	76.309	-57.1688
30.700001	76.361	-57.1966
31.100000	76.426	-57.2409
31.500000	76.485	-57.2897
32.000000	76.548	-57.3388
32.500000	76.604	-57.3589
33.000000	76.663	-57.3591
33.500000	76.730	-57.3722
34.000000	76.800	-57.4254
34.500000	76.867	-57.5099
35.000000	76.924	-57.5833
35.500000	76.971	-57.6024
36.000000	77.013	-57.5584
36.500000	77.054	-57.4799
37.000000	77.094	-57.4058
37.500000	77.132	-57.3559
38.200001	77.181	-57.3118
38.700001	77.213	-57.2689
39.500000	77.259	-57.1186
40.000000	77.285	-56.9545
40.599998	77.317	-56.7043
41.200001	77.350	-56.4505
41.799999	77.380	-56.2419
42.500000	77.409	-56.0514
43.099998	77.428	-55.8909
43.700001	77.444	-55.7043
44.400002	77.461	-55.4431
45.000000	77.472	-55.1741
45.500000	77.481	-54.9151
46.200001	77.494	-54.5141
46.799999	77.504	-54.1525
47.500000	77.507	-53.7139
48.200001	77.502	-53.2592
48.700001	77.497	-52.9446
49.400002	77.494	-52.5530
50.000000	77.495	-52.2588
50.799999	77.494	-51.8502
51.500000	77.489	-51.4164
52.200001	77.476	-50.9186
53.000000	77.451	-50.3418
53.799999	77.417	-49.8015
54.500000	77.382	-49.3252
55.200001	77.349	-48.7863
56.000000	77.318	-48.0817
57.000000	77.290	-47.1718
58.000000	77.261	-46.3201
59.000000	77.225	-45.4737
60.000000	77.182	-44.5542
60.799999	77.143	-43.7452
61.500000	77.109	-43.0009
62.200001	77.080	-42.2636
63.000000	77.052	-41.4634
64.000000	77.017	-40.4972
65.000000	76.978	-39.5074
66.000000	76.930	-38.4755
67.000000	76.870	-37.3832
68.000000	76.810	-36.2263
69.000000	76.754	-35.0376
70.000000	76.698	-33.8405
71.000000	76.637	-32.6243
72.000000	76.572	-31.3926
73.000000	76.504	-30.1863
74.000000	76.432	-29.0092
75.000000	76.358	-27.8057
76.199997	76.278	-26.2841
77.500000	76.198	-24.5935
78.800003	76.116	-22.8968
80.000000	76.045	-21.3075
81.199997	75.982	-19.7087
82.500000	75.916	-18.0234
83.800003	75.845	-16.3704
85.000000	75.772	-14.7725
86.199997	75.690	-13.0795
87.500000	75.594	-11.2207
88.500000	75.522	-9.8210
90.000000	75.416	-7.7601
91.199997	75.328	-6.1044
92.500000	75.230	-4.2638
93.800003	75.134	-2.3455
95.000000	75.049	-0.5147
96.199997	74.968	1.3517
97.500000	74.885	3.3976
98.800003	74.809	5.4768
100.000000	74.740	7.4193
101.500000	74.648	9.8196
103.000000	74.549	12.1689
104.400002	74.461	14.3554
106.000000	74.373	16.8860
107.500000	74.290	19.3118
109.000000	74.196	21.8006
110.599998	74.088	24.5035
112.000000	73.995	26.8923
113.800003	73.880	29.9294
115.000000	73.810	31.9058
117.199997	73.690	35.4495
118.000000	73.648	36.7222
120.599998	73.501	40.8912
122.000000	73.416	43.2036
124.099998	73.288	46.7927
125.000000	73.236	48.3674
126.500000	73.151	51.0111
128.000000	73.070	53.6535
131.500000	72.897	59.7880
132.000000	72.873	60.6651
134.000000	72.775	64.1654
136.000000	72.672	67.6453
138.000000	72.570	71.1338
140.000000	72.477	74.6813
143.000000	72.360	80.0907
145.000000	72.294	83.7179
147.500000	72.221	88.3174
150.000000	72.151	92.9172
152.500000	72.075	97.3991
155.000000	71.994	101.7835
157.500000	71.923	106.1922
160.000000	71.857	110.7193
162.500000	71.788	115.3383
165.000000	71.725	119.9094
167.500000	71.670	124.4345
170.000000	71.621	129.0211
172.500000	71.583	133.6462
175.000000	71.563	138.2026
177.500000	71.555	142.5951
180.000000	71.548	146.8493
182.500000	71.535	151.0929
185.000000	71.517	155.4160
187.500000	71.499	159.8021
190.000000	71.481	164.1900
192.500000	71.468	168.5555
195.000000	71.457	172.8705
197.500000	71.449	177.1165
200.000000	71.446	-178.6876
203.000000	71.458	-173.6923
206.000000	71.485	-168.7390
209.000000	71.523	-163.8075
212.000000	71.562	-158.8749
214.000000	71.584	-155.5795
218.000000	71.617	-148.9647
220.000000	71.632	-145.6646
224.000000	71.660	-139.1495
227.000000	71.678	-134.3587
230.000000	71.692	-129.6321
233.000000	71.704	-124.9416
236.000000	71.716	-120.2810
240.000000	71.732	-114.1172
243.000000	71.738	-109.5266
247.000000	71.741	-103.3826
250.000000	71.741	-98.7535
254.000000	71.744	-92.5850
258.000000	71.745	-86.4128
262.000000	71.733	-80.2952
265.000000	71.718	-75.7455
269.000000	71.698	-69.6741
272.000000	71.687	-65.0983
276.000000	71.681	-58.9534
280.000000	71.679	-52.7770
285.000000	71.678	-45.0491
290.000000	71.692	-37.2864
295.000000	71.729	-29.4734
300.000000	71.786	-21.7847
304.000000	71.835	-15.8549
307.000000	71.868	-11.5316
311.000000	71.902	-5.8665
315.000000	71.922	-0.2523
320.000000	71.922	6.7413
325.000000	71.900	13.7986
330.000000	71.873	20.9743
335.000000	71.843	28.1836
340.000000	71.806	35.4006
345.000000	71.766	42.6674
350.000000	71.730	50.0110
355.000000	71.699	57.3963
360.000000	71.669	64.7704
365.000000	71.639	72.0732
370.000000	71.603	79.2900
375.000000	71.560	86.4766
382.000000	71.503	96.5389
387.000000	71.472	103.6824
395.000000	71.430	115.0310
400.000000	71.406	122.1727
406.000000	71.380	130.7820
412.000000	71.349	139.3391
418.000000	71.306	147.8256
425.000000	71.249	157.7063
431.000000	71.208	166.2249
437.000000	71.178	174.7702
444.000000	71.156	-175.3172
450.000000	71.137	-166.8996
455.000000	71.109	-159.9567
462.000000	71.045	-150.4100
468.000000	70.978	-142.3741
475.000000	70.904	-133.0763
482.000000	70.845	-123.8186
487.000000	70.812	-117.2460
494.000000	70.772	-108.1219
500.000000	70.738	-100.3682
508.000000	70.690	-90.0847
515.000000	70.652	-81.0880
522.000000	70.620	-72.0789
530.000000	70.589	-61.7770
538.000000	70.555	-51.4804
545.000000	70.521	-42.5111
552.000000	70.484	-33.5894
560.000000	70.441	-23.4650
570.000000	70.387	-10.8859
580.000000	70.329	1.7282
590.000000	70.269	14.3395
600.000000	70.207	26.7429
608.000000	70.155	36.5348
615.000000	70.108	45.0698
622.000000	70.064	53.5849
630.000000	70.020	63.2656
640.000000	69.977	75.3866
650.000000	69.943	87.5934
660.000000	69.908	99.6624
670.000000	69.865	111.4845
680.000000	69.819	123.1610
690.000000	69.766	134.8016
700.000000	69.699	146.4304
710.000000	69.627	158.0332
720.000000	69.568	169.6781
730.000000	69.528	-178.6654
740.000000	69.504	-167.0997
750.000000	69.490	-155.6246
762.000000	69.488	-141.8933
775.000000	69.492	-127.0254
788.000000	69.478	-112.2417
800.000000	69.453	-98.6750
812.000000	69.431	-85.1683
825.000000	69.414	-70.5962
838.000000	69.403	-56.0980
850.000000	69.400	-42.7924
862.000000	69.403	-29.5651
875.000000	69.415	-15.3622
885.000000	69.426	-4.5323
900.000000	69.441	11.6328
912.000000	69.449	24.5864
925.000000	69.459	38.7285
938.000000	69.479	52.9244
950.000000	69.507	65.9758
962.000000	69.544	78.9229
975.000000	69.592	92.8549
988.000000	69.645	106.7518
1000.000000	69.695	119.5513
1015.000000	69.760	135.4397
1030.000000	69.834	151.1257
1044.000000	69.908	165.5221
1060.000000	69.987	-178.2090
1075.000000	70.061	-162.9985
1090.000000	70.141	-147.8513
1106.000000	70.232	-131.8254
1120.000000	70.313	-117.8922
1138.000000	70.423	-100.0659
1150.000000	70.499	-88.2478
1172.000000	70.643	-66.7515
1180.000000	70.697	-58.9830
1206.000000	70.866	-33.8550
1220.000000	70.949	-20.4086
1241.000000	71.061	-0.3939
1250.000000	71.106	8.1228
1265.000000	71.183	22.2185
1280.000000	71.261	36.1713
1315.000000	71.443	68.2366
1320.000000	71.467	72.7764
1340.000000	71.559	90.8492
1360.000000	71.642	108.7625
1380.000000	71.723	126.5166
1400.000000	71.808	144.1243
1430.000000	71.949	170.2300
1450.000000	72.046	-172.5684
1475.000000	72.166	-151.2130
1500.000000	72.288	-129.8199
1525.000000	72.418	-108.3386
1550.000000	72.562	-86.9680
1575.000000	72.721	-65.8586
1600.000000	72.896	-44.9769
1625.000000	73.072	-24.2017
1650.000000	73.240	-3.5330
1675.000000	73.400	16.9778
1700.000000	73.561	37.3849
1725.000000	73.726	57.7249
1750.000000	73.899	77.9722
1775.000000	74.075	98.1387
1800.000000	74.257	118.3164
1825.000000	74.446	138.5159
1850.000000	74.649	158.5771
1875.000000	74.868	178.3584
1900.000000	75.107	-162.1948
1925.000000	75.366	-143.1782
1950.000000	75.636	-124.6479
1975.000000	75.909	-106.5488
2000.000000	76.171	-88.7515
2030.000000	76.458	-67.6140
2060.000000	76.709	-46.6997
2090.000000	76.926	-25.9680
2120.000000	77.112	-5.3052
2140.000000	77.218	8.4148
2180.000000	77.398	35.6392
2200.000000	77.479	49.1995
2240.000000	77.615	76.4587
2270.000000	77.696	97.0540
2300.000000	77.764	117.7031
2330.000000	77.819	138.3508
2360.000000	77.859	158.8447
2400.000000	77.882	-174.1855
2430.000000	77.880	-154.0239
2470.000000	77.870	-126.8865
2500.000000	77.857	-106.3330
2540.000000	77.829	-78.8018
2580.000000	77.792	-51.2378
2620.000000	77.756	-23.9363
2650.000000	77.728	-3.9238
2690.000000	77.684	21.9426
2720.000000	77.644	40.6758
2760.000000	77.582	64.9502
2800.000000	77.512	88.8247
2850.000000	77.425	118.4980
2900.000000	77.342	147.9539
2950.000000	77.254	177.3872
3000.000000	77.161	-153.0466
3040.000000	77.085	-129.3901
3070.000000	77.031	-111.7100
3110.000000	76.960	-88.2583
3150.000000	76.885	-64.9888
3200.000000	76.784	-36.1582
3250.000000	76.680	-7.4033
3300.000000	76.593	21.3120
3350.000000	76.523	49.9377
3400.000000	76.464	78.5200
3450.000000	76.416	106.9688
3500.000000	76.375	135.0339
3550.000000	76.337	162.7449
3600.000000	76.304	-169.7537
3650.000000	76.276	-142.4199
3700.000000	76.256	-115.1072
3750.000000	76.248	-87.8684
3820.000000	76.241	-50.5815
3870.000000	76.228	-24.4805
3950.000000	76.210	17.2107
4000.000000	76.204	43.1003
4060.000000	76.196	73.6421
4120.000000	76.182	103.6582
4180.000000	76.161	133.3228
4250.000000	76.131	167.4336
4310.000000	76.102	-164.1851
4370.000000	76.071	-136.8125
4440.000000	76.034	-106.0159
4500.000000	75.996	-80.4243
4550.000000	75.957	-59.5464
4620.000000	75.898	-30.7588
4680.000000	75.845	-6.3079
4750.000000	75.785	22.1030
4820.000000	75.725	50.3696
4870.000000	75.680	70.5459
4940.000000	75.619	98.7664
5000.000000	75.565	122.6746
5080.000000	75.489	154.1438
5150.000000	75.424	-178.1875
5220.000000	75.376	-150.2200
5300.000000	75.351	-118.6602
5380.000000	75.349	-87.5566
5450.000000	75.369	-61.1318
5520.000000	75.384	-36.3438
5600.000000	75.354	-9.7090
5700.000000	75.238	22.6196
5800.000000	75.059	55.4258
5900.000000	74.839	89.0186
6000.000000	74.586	122.3389
6080.000000	74.373	148.5972
6150.000000	74.195	171.7954
6220.000000	74.037	-164.2529
6300.000000	73.890	-135.6626
6400.000000	73.752	-98.8921
6500.000000	73.667	-62.1445
6600.000000	73.642	-26.3037
6700.000000	73.685	8.3594
6800.000000	73.810	42.3945
6900.000000	74.030	76.2930
7000.000000	74.339	109.7075
7100.000000	74.741	142.3491
7200.000000	75.260	174.4390
7300.000000	75.912	-154.2920
7400.000000	76.680	-125.1411
7500.000000	77.496	-99.8730
7620.000000	78.378	-75.7891
7750.000000	78.988	-56.2129
7880.000000	79.030	-40.7710
8000.000000	78.493	-27.3984
8120.000000	77.452	-12.4946
8250.000000	75.910	7.4155
8380.000000	74.142	32.1572
8500.000000	72.478	58.7324
8620.000000	70.901	87.4570
8750.000000	69.370	119.3452
8850.000000	68.338	143.9810
9000.000000	67.027	-177.9883
9120.000000	66.178	-146.5752
9250.000000	65.436	-112.7935
9380.000000	64.865	-79.8447
9500.000000	64.484	-49.7554
9620.000000	64.237	-19.8169
9750.000000	64.111	12.1260
9880.000000	64.118	43.3413
10000.000000	64.235	71.4058
10150.000000	64.520	105.1768
10300.000000	64.954	137.3359
10440.000000	65.496	165.9160
10600.000000	66.275	-163.1519
10750.000000	67.152	-136.3540
10900.000000	68.147	-112.5742
11060.000000	69.296	-90.7954
11200.000000	70.331	-74.3125
11380.000000	71.635	-55.4575
11500.000000	72.459	-43.7822
11720.000000	73.838	-24.0088
11800.000000	74.299	-17.5576
12060.000000	75.692	-0.2969
12200.000000	76.377	6.5308
12410.000000	77.269	13.6431
12500.000000	77.578	15.5625
12650.000000	77.956	17.3862
12800.000000	78.141	17.9663
13150.000000	77.846	19.3140
13200.000000	77.742	19.9302
13400.000000	77.259	24.0513
13600.000000	76.795	30.6953
13800.000000	76.509	38.6724
14000.000000	76.530	45.5459
14300.000000	77.182	48.2607
14500.000000	77.876	43.7803
14750.000000	78.672	32.5474
15000.000000	78.995	17.4341
15250.000000	78.601	1.1953
15500.000000	77.518	-14.2139
15750.000000	75.938	-27.3462
16000.000000	74.055	-36.6738
16250.000000	71.986	-41.7480
16500.000000	69.795	-43.4248
16750.000000	67.584	-42.3696
17000.000000	65.496	-39.0654
17250.000000	63.720	-34.0220
17500.000000	62.475	-28.1333
17750.000000	61.944	-23.4531
18000.000000	62.146	-22.5381
18250.000000	62.884	-26.4248
18500.000000	63.832	-34.6240
18750.000000	64.653	-46.8491
19000.000000	65.118	-62.3784
19250.000000	65.130	-79.3706
19500.000000	64.734	-95.9082
19750.000000	64.139	-110.2080
20000.000000	63.705	-118.9653
