* Measurement data measured by REW V5.31.1
* Source: Microphone (4- USB Audio Device), MICROPHONE (Master Volume), R, volume: 0.900
* Format: 256k Log Swept Sine, 1 sweep at -12.0 dBFS with no timing reference
* Dated: 12-Jun-2024 14:05:06
* REW Settings:
*  C-weighting compensation: Off
*  Target level: 75.0 dB
* Note: 
* Measurement: Realme Buds Air 6 Pro GS
* Smoothing: 1/12 octave
* Frequency Step: 1/48 octave
* Start Frequency: 20.300 Hz
*
* Freq(Hz)	SPL(dB)	Phase(degrees)
20.299999	75.133	-56.2745
20.600000	75.196	-56.3969
20.900000	75.275	-56.5465
21.200001	75.356	-56.7078
21.400000	75.411	-56.8210
21.799999	75.517	-57.0605
22.000000	75.570	-57.1855
22.400000	75.674	-57.4392
22.700001	75.752	-57.6285
23.000000	75.831	-57.8157
23.299999	75.910	-58.0012
23.600000	75.989	-58.1856
24.000000	76.091	-58.4256
24.299999	76.165	-58.5938
24.700001	76.258	-58.7896
25.000000	76.324	-58.9100
25.400000	76.409	-59.0406
25.799999	76.492	-59.1563
26.200001	76.571	-59.2807
26.500000	76.626	-59.3863
26.900000	76.692	-59.5353
27.200001	76.735	-59.6395
27.600000	76.788	-59.7476
28.000000	76.839	-59.8093
28.500000	76.904	-59.8328
29.000000	76.973	-59.8297
29.500000	77.040	-59.8230
30.000000	77.102	-59.8130
30.400000	77.149	-59.8015
30.700001	77.183	-59.7942
31.100000	77.229	-59.7928
31.500000	77.274	-59.8038
32.000000	77.329	-59.8242
32.500000	77.380	-59.8250
33.000000	77.429	-59.7826
33.500000	77.476	-59.6956
34.000000	77.522	-59.5829
34.500000	77.564	-59.4685
35.000000	77.600	-59.3653
35.500000	77.629	-59.2678
36.000000	77.652	-59.1590
36.500000	77.672	-59.0263
37.000000	77.693	-58.8730
37.500000	77.713	-58.7107
38.200001	77.739	-58.4683
38.700001	77.757	-58.2652
39.500000	77.786	-57.8743
40.000000	77.806	-57.6098
40.599998	77.826	-57.2906
41.200001	77.840	-56.9676
41.799999	77.852	-56.6485
42.500000	77.869	-56.3126
43.099998	77.883	-56.0487
43.700001	77.897	-55.7568
44.400002	77.916	-55.3375
45.000000	77.934	-54.9302
45.500000	77.948	-54.5801
46.200001	77.959	-54.0774
46.799999	77.961	-53.6186
47.500000	77.960	-53.0396
48.200001	77.958	-52.4303
48.700001	77.959	-52.0042
49.400002	77.961	-51.4680
50.000000	77.958	-51.0798
50.799999	77.943	-50.6014
51.500000	77.922	-50.1300
52.200001	77.901	-49.5714
53.000000	77.880	-48.8675
53.799999	77.862	-48.1728
54.500000	77.841	-47.6046
55.200001	77.815	-47.0464
56.000000	77.780	-46.3711
57.000000	77.735	-45.4677
58.000000	77.689	-44.5394
59.000000	77.649	-43.6181
60.000000	77.614	-42.7321
60.799999	77.586	-42.0225
61.500000	77.563	-41.3908
62.200001	77.540	-40.7565
63.000000	77.508	-40.0067
64.000000	77.459	-38.9696
65.000000	77.402	-37.8595
66.000000	77.340	-36.7802
67.000000	77.277	-35.7554
68.000000	77.220	-34.7312
69.000000	77.166	-33.6669
70.000000	77.113	-32.5965
71.000000	77.056	-31.5626
72.000000	76.998	-30.5733
73.000000	76.937	-29.6018
74.000000	76.872	-28.6021
75.000000	76.806	-27.5411
76.199997	76.725	-26.1428
77.500000	76.638	-24.4782
78.800003	76.552	-22.7923
80.000000	76.471	-21.3145
81.199997	76.386	-19.8774
82.500000	76.296	-18.3210
83.800003	76.210	-16.7460
85.000000	76.132	-15.2572
86.199997	76.048	-13.7356
87.500000	75.954	-12.0382
88.500000	75.886	-10.6965
90.000000	75.795	-8.6586
91.199997	75.730	-7.0488
92.500000	75.664	-5.3400
93.800003	75.592	-3.6121
95.000000	75.515	-1.9845
96.199997	75.427	-0.3595
97.500000	75.325	1.3982
98.800003	75.222	3.1838
100.000000	75.131	4.8839
101.500000	75.023	7.0762
103.000000	74.920	9.2808
104.400002	74.824	11.3452
106.000000	74.717	13.7396
107.500000	74.625	15.9978
109.000000	74.542	18.2701
110.599998	74.454	20.7226
112.000000	74.370	22.8822
113.800003	74.255	25.6266
115.000000	74.179	27.4318
117.199997	74.052	30.7155
118.000000	74.010	31.8999
120.599998	73.881	35.7094
122.000000	73.798	37.7423
124.099998	73.654	40.8553
125.000000	73.592	42.2369
126.500000	73.499	44.5835
128.000000	73.413	46.9393
131.500000	73.213	52.3407
132.000000	73.184	53.1055
134.000000	73.069	56.1766
136.000000	72.965	59.2715
138.000000	72.882	62.3693
140.000000	72.817	65.4581
143.000000	72.724	70.1438
145.000000	72.658	73.3856
147.500000	72.576	77.5477
150.000000	72.494	81.6131
152.500000	72.416	85.5267
155.000000	72.344	89.4779
157.500000	72.278	93.4794
160.000000	72.222	97.4177
162.500000	72.178	101.2840
165.000000	72.139	105.1395
167.500000	72.108	109.0233
170.000000	72.084	112.9126
172.500000	72.052	116.7921
175.000000	72.015	120.6537
177.500000	71.985	124.4883
180.000000	71.970	128.3273
182.500000	71.969	132.1462
185.000000	71.980	135.8498
187.500000	72.002	139.4713
190.000000	72.025	143.1153
192.500000	72.048	146.7902
195.000000	72.076	150.4438
197.500000	72.104	154.0345
200.000000	72.130	157.5683
203.000000	72.161	161.7856
206.000000	72.194	166.0167
209.000000	72.228	170.2184
212.000000	72.269	174.3370
214.000000	72.303	177.0371
218.000000	72.376	-177.6615
220.000000	72.414	-175.0475
224.000000	72.492	-169.8559
227.000000	72.546	-165.9969
230.000000	72.596	-162.1661
233.000000	72.647	-158.3674
236.000000	72.702	-154.5961
240.000000	72.769	-149.6068
243.000000	72.808	-145.8937
247.000000	72.851	-140.9621
250.000000	72.882	-137.2946
254.000000	72.926	-132.4897
258.000000	72.967	-127.8363
262.000000	73.002	-123.2806
265.000000	73.026	-119.8496
269.000000	73.054	-115.2426
272.000000	73.072	-111.7970
276.000000	73.086	-107.2509
280.000000	73.086	-102.7585
285.000000	73.068	-97.1573
290.000000	73.041	-91.4256
295.000000	73.022	-85.4934
300.000000	73.018	-79.4287
304.000000	73.040	-74.5158
307.000000	73.079	-70.8438
311.000000	73.158	-66.0535
315.000000	73.256	-61.4352
320.000000	73.388	-55.9040
325.000000	73.514	-50.6201
330.000000	73.620	-45.5412
335.000000	73.699	-40.6055
340.000000	73.754	-35.7693
345.000000	73.794	-30.9973
350.000000	73.819	-26.1996
355.000000	73.833	-21.3225
360.000000	73.843	-16.3846
365.000000	73.853	-11.4007
370.000000	73.858	-6.3875
375.000000	73.859	-1.3984
382.000000	73.874	5.5060
387.000000	73.901	10.4209
395.000000	73.946	18.2084
400.000000	73.978	22.9813
406.000000	74.020	28.5759
412.000000	74.057	34.1036
418.000000	74.093	39.6599
425.000000	74.148	46.1398
431.000000	74.193	51.6158
437.000000	74.216	57.0137
444.000000	74.215	63.2878
450.000000	74.204	68.6980
455.000000	74.192	73.2374
462.000000	74.179	79.6522
468.000000	74.181	85.1516
475.000000	74.194	91.5251
482.000000	74.199	97.8712
487.000000	74.195	102.3846
494.000000	74.185	108.6459
500.000000	74.177	113.9416
508.000000	74.169	120.9480
515.000000	74.157	127.0646
522.000000	74.135	133.1403
530.000000	74.108	140.0027
538.000000	74.090	146.8513
545.000000	74.084	152.8860
552.000000	74.080	158.9598
560.000000	74.071	165.9182
570.000000	74.047	174.5246
580.000000	74.015	-177.0481
590.000000	73.975	-168.7080
600.000000	73.933	-160.4008
608.000000	73.903	-153.8089
615.000000	73.883	-148.0869
622.000000	73.869	-142.4078
630.000000	73.857	-135.9826
640.000000	73.848	-128.0897
650.000000	73.829	-120.3358
660.000000	73.793	-112.6908
670.000000	73.759	-105.1710
680.000000	73.735	-97.6490
690.000000	73.724	-90.0366
700.000000	73.723	-82.3944
710.000000	73.718	-74.7393
720.000000	73.708	-67.0430
730.000000	73.699	-59.3533
740.000000	73.700	-51.7476
750.000000	73.714	-44.1701
762.000000	73.732	-35.0000
775.000000	73.741	-25.0171
788.000000	73.748	-15.1293
800.000000	73.746	-6.1290
812.000000	73.745	2.7349
825.000000	73.765	12.2635
838.000000	73.804	21.7870
850.000000	73.843	30.5585
862.000000	73.876	39.2931
875.000000	73.906	48.7223
885.000000	73.929	55.9795
900.000000	73.980	66.8398
912.000000	74.039	75.4036
925.000000	74.115	84.4692
938.000000	74.189	93.3435
950.000000	74.251	101.4175
962.000000	74.314	109.3911
975.000000	74.393	117.9202
988.000000	74.488	126.3883
1000.000000	74.584	134.2185
1015.000000	74.702	144.0488
1030.000000	74.813	153.8765
1044.000000	74.913	162.9409
1060.000000	75.029	173.1345
1075.000000	75.148	-177.4022
1090.000000	75.279	-167.9988
1106.000000	75.425	-158.1158
1120.000000	75.549	-149.6685
1138.000000	75.699	-139.0869
1150.000000	75.797	-132.1462
1172.000000	75.981	-119.5081
1180.000000	76.049	-114.9280
1206.000000	76.263	-100.2361
1220.000000	76.375	-92.4547
1241.000000	76.538	-80.6414
1250.000000	76.611	-75.4285
1265.000000	76.740	-66.5142
1280.000000	76.875	-57.3569
1315.000000	77.188	-35.4159
1320.000000	77.231	-32.2581
1340.000000	77.395	-19.6627
1360.000000	77.546	-7.1570
1380.000000	77.692	5.3362
1400.000000	77.838	17.8528
1430.000000	78.064	36.6052
1450.000000	78.224	49.0183
1475.000000	78.437	64.3271
1500.000000	78.663	79.3771
1525.000000	78.899	94.0999
1550.000000	79.136	108.5394
1575.000000	79.379	122.8762
1600.000000	79.633	137.2480
1625.000000	79.896	151.4821
1650.000000	80.158	165.4066
1675.000000	80.420	179.0712
1700.000000	80.693	-167.4565
1725.000000	80.982	-154.0381
1750.000000	81.288	-140.4857
1775.000000	81.602	-126.7498
1800.000000	81.916	-112.9507
1825.000000	82.234	-99.1630
1850.000000	82.558	-85.4515
1875.000000	82.876	-71.9604
1900.000000	83.176	-58.7625
1925.000000	83.459	-45.8296
1950.000000	83.730	-33.1256
1975.000000	83.994	-20.6433
2000.000000	84.246	-8.3600
2030.000000	84.531	6.2013
2060.000000	84.797	20.6256
2090.000000	85.039	34.9789
2120.000000	85.255	49.2544
2140.000000	85.387	58.7271
2180.000000	85.618	77.5621
2200.000000	85.709	86.8564
2240.000000	85.839	105.0310
2270.000000	85.904	118.3744
2300.000000	85.953	131.6705
2330.000000	85.991	145.0861
2360.000000	86.018	158.6196
2400.000000	86.026	176.6493
2430.000000	86.008	-169.9625
2470.000000	85.957	-152.2772
2500.000000	85.906	-139.0176
2540.000000	85.828	-121.2107
2580.000000	85.746	-103.2140
2620.000000	85.666	-85.0029
2650.000000	85.608	-71.2430
2690.000000	85.529	-52.9121
2720.000000	85.466	-39.2871
2760.000000	85.376	-21.3230
2800.000000	85.289	-3.4358
2850.000000	85.205	18.9417
2900.000000	85.134	41.1394
2950.000000	85.061	63.0840
3000.000000	84.993	84.9258
3040.000000	84.952	102.5488
3070.000000	84.934	115.9065
3110.000000	84.923	133.7896
3150.000000	84.917	151.5027
3200.000000	84.906	173.1917
3250.000000	84.900	-165.5518
3300.000000	84.909	-144.6440
3350.000000	84.933	-124.2036
3400.000000	84.956	-104.3516
3450.000000	84.978	-84.8965
3500.000000	85.006	-65.5896
3550.000000	85.035	-46.4050
3600.000000	85.063	-27.4067
3650.000000	85.094	-8.6975
3700.000000	85.127	9.5427
3750.000000	85.162	27.1697
3820.000000	85.217	50.7864
3870.000000	85.265	67.0723
3950.000000	85.357	92.0977
4000.000000	85.415	106.9084
4060.000000	85.483	123.8860
4120.000000	85.545	140.3005
4180.000000	85.608	156.3296
4250.000000	85.675	174.3967
4310.000000	85.707	-170.5308
4370.000000	85.712	-155.4841
4440.000000	85.696	-137.7478
4500.000000	85.663	-122.4507
4550.000000	85.618	-109.7981
4620.000000	85.522	-92.5159
4680.000000	85.408	-78.1079
4750.000000	85.249	-61.6816
4820.000000	85.056	-45.8550
4870.000000	84.889	-35.0242
4940.000000	84.620	-20.4697
5000.000000	84.363	-8.3782
5080.000000	83.994	7.6843
5150.000000	83.659	22.1045
5220.000000	83.325	36.9180
5300.000000	82.947	54.0967
5380.000000	82.592	71.4812
5450.000000	82.332	86.9990
5520.000000	82.138	102.8193
5600.000000	82.005	121.1411
5700.000000	81.972	144.0476
5800.000000	82.050	166.4265
5900.000000	82.195	-171.8501
6000.000000	82.363	-150.8716
6080.000000	82.487	-134.6023
6150.000000	82.586	-120.3718
6220.000000	82.676	-105.9216
6300.000000	82.770	-89.2346
6400.000000	82.869	-68.5493
6500.000000	82.962	-48.1499
6600.000000	83.070	-27.8237
6700.000000	83.209	-7.8337
6800.000000	83.384	11.0815
6900.000000	83.601	28.6760
7000.000000	83.876	45.4263
7100.000000	84.217	61.7600
7200.000000	84.619	77.6514
7300.000000	85.066	93.0178
7400.000000	85.551	107.7778
7500.000000	86.056	121.5908
7620.000000	86.665	136.4438
7750.000000	87.294	150.0266
7880.000000	87.843	160.5938
8000.000000	88.195	167.2568
8120.000000	88.270	170.9382
8250.000000	87.905	172.6616
8380.000000	87.009	174.0654
8500.000000	85.756	177.0972
8620.000000	84.209	-176.9844
8750.000000	82.358	-166.7891
8850.000000	80.914	-156.2026
9000.000000	78.863	-136.5137
9120.000000	77.392	-118.3589
9250.000000	76.005	-97.2427
9380.000000	74.828	-75.5762
9500.000000	73.911	-56.2346
9620.000000	73.136	-38.2668
9750.000000	72.442	-20.1760
9880.000000	71.882	-2.6855
10000.000000	71.475	13.6177
10150.000000	71.114	34.5479
10300.000000	70.933	55.5269
10440.000000	70.961	74.6963
10600.000000	71.248	95.7856
10750.000000	71.712	113.9316
10900.000000	72.267	129.7827
11060.000000	72.870	144.4480
11200.000000	73.387	156.3164
11380.000000	74.076	171.3745
11500.000000	74.576	-178.8552
11720.000000	75.566	-163.3328
11800.000000	75.932	-158.8203
12060.000000	77.029	-148.5972
12200.000000	77.509	-145.6213
12410.000000	78.061	-143.5637
12500.000000	78.245	-143.1765
12650.000000	78.489	-142.7803
12800.000000	78.653	-142.6343
13150.000000	78.680	-143.6230
13200.000000	78.641	-143.9104
13400.000000	78.391	-145.2170
13600.000000	78.028	-146.3457
13800.000000	77.634	-146.7659
14000.000000	77.310	-146.4604
14300.000000	77.134	-146.5486
14500.000000	77.294	-148.3984
14750.000000	77.785	-154.4009
15000.000000	78.439	-165.4773
15250.000000	79.002	179.1477
15500.000000	79.200	160.5635
15750.000000	78.813	139.4805
16000.000000	77.760	117.8318
16250.000000	76.100	97.9575
16500.000000	73.960	80.8562
16750.000000	71.498	66.6465
17000.000000	68.871	54.5833
17250.000000	66.221	43.2400
17500.000000	63.689	31.6555
17750.000000	61.425	20.1372
18000.000000	59.608	9.7021
18250.000000	58.393	0.1396
18500.000000	57.825	-10.0024
18750.000000	57.781	-21.6221
19000.000000	58.062	-34.8018
19250.000000	58.486	-49.7520
19500.000000	58.920	-66.2681
19750.000000	59.271	-81.8179
20000.000000	59.457	-91.3027
