* Measurement data measured by REW V5.31.3
* Source: Microphone (USB Sound Device        ), MICROPHONE (Master Volume), L, volume: 0.250
* Format: 256k Log Swept Sine, 1 sweep at -12.0 dBFS with no timing reference
* Dated: 18-Jan-2025 14:28:50
* REW Settings:
*  C-weighting compensation: Off
*  Target level: 75.0 dB
* Note: 
* Measurement: Realme BA6 P Orig ANC R
* Smoothing: 1/12 octave
* Frequency Step: 1/48 octave
* Start Frequency: 20.300 Hz
*
* Freq(Hz)	SPL(dB)	Phase(degrees)
20.299999	76.227	8.5992
20.600000	76.289	8.8193
20.900000	76.370	9.0286
21.200001	76.451	9.1371
21.400000	76.495	9.1349
21.799999	76.547	8.9624
22.000000	76.554	8.8107
22.400000	76.536	8.4340
22.700001	76.505	8.1309
23.000000	76.473	7.8409
23.299999	76.451	7.5756
23.600000	76.450	7.3245
24.000000	76.489	6.9460
24.299999	76.544	6.5602
24.700001	76.633	5.8223
25.000000	76.692	5.0898
25.400000	76.735	3.9506
25.799999	76.725	2.7948
26.200001	76.676	1.8154
26.500000	76.633	1.2638
26.900000	76.596	0.7575
27.200001	76.592	0.4848
27.600000	76.618	0.1529
28.000000	76.659	-0.2116
28.500000	76.697	-0.6919
29.000000	76.708	-1.1060
29.500000	76.702	-1.4378
30.000000	76.694	-1.7911
30.400000	76.686	-2.1634
30.700001	76.677	-2.5046
31.100000	76.659	-3.0168
31.500000	76.635	-3.5480
32.000000	76.604	-4.1722
32.500000	76.589	-4.7263
33.000000	76.601	-5.2405
33.500000	76.643	-5.7673
34.000000	76.700	-6.3204
34.500000	76.748	-6.8362
35.000000	76.766	-7.2023
35.500000	76.756	-7.3502
36.000000	76.731	-7.3403
36.500000	76.711	-7.3553
37.000000	76.703	-7.5837
37.500000	76.702	-8.0903
38.200001	76.703	-9.0744
38.700001	76.701	-9.7466
39.500000	76.683	-10.5021
40.000000	76.654	-10.7853
40.599998	76.599	-11.0396
41.200001	76.538	-11.3356
41.799999	76.492	-11.7954
42.500000	76.460	-12.5411
43.099998	76.437	-13.1736
43.700001	76.414	-13.5971
44.400002	76.401	-13.7992
45.000000	76.406	-13.9140
45.500000	76.415	-14.1156
46.200001	76.418	-14.6503
46.799999	76.401	-15.2819
47.500000	76.365	-16.0311
48.200001	76.332	-16.6175
48.700001	76.321	-16.9188
49.400002	76.319	-17.2513
50.000000	76.308	-17.5133
50.799999	76.257	-17.8642
51.500000	76.189	-18.2167
52.200001	76.118	-18.6608
53.000000	76.048	-19.2528
53.799999	75.991	-19.8532
54.500000	75.943	-20.3335
55.200001	75.894	-20.7334
56.000000	75.850	-21.1094
57.000000	75.830	-21.6372
58.000000	75.814	-22.3253
59.000000	75.758	-22.9752
60.000000	75.676	-23.4919
60.799999	75.606	-23.8917
61.500000	75.549	-24.2683
62.200001	75.504	-24.6853
63.000000	75.471	-25.2299
64.000000	75.442	-25.9467
65.000000	75.398	-26.5277
66.000000	75.323	-26.8916
67.000000	75.226	-27.1393
68.000000	75.136	-27.4547
69.000000	75.068	-27.8967
70.000000	75.014	-28.3322
71.000000	74.962	-28.6830
72.000000	74.897	-29.0134
73.000000	74.818	-29.3478
74.000000	74.737	-29.6999
75.000000	74.655	-30.1108
76.199997	74.558	-30.6497
77.500000	74.472	-31.1976
78.800003	74.408	-31.6409
80.000000	74.346	-31.9765
81.199997	74.258	-32.2516
82.500000	74.142	-32.5075
83.800003	74.020	-32.8182
85.000000	73.911	-33.1085
86.199997	73.817	-33.3049
87.500000	73.734	-33.4589
88.500000	73.679	-33.6347
90.000000	73.597	-34.0403
91.199997	73.524	-34.3918
92.500000	73.423	-34.6981
93.800003	73.307	-34.9546
95.000000	73.206	-35.2232
96.199997	73.116	-35.5219
97.500000	73.026	-35.7976
98.800003	72.935	-35.9361
100.000000	72.846	-35.9307
101.500000	72.724	-35.8753
103.000000	72.596	-35.9141
104.400002	72.485	-35.9799
106.000000	72.374	-35.9979
107.500000	72.274	-36.0216
109.000000	72.167	-36.0746
110.599998	72.051	-36.0876
112.000000	71.954	-36.0660
113.800003	71.839	-36.0121
115.000000	71.769	-35.9625
117.199997	71.641	-35.8706
118.000000	71.595	-35.8188
120.599998	71.439	-35.6042
122.000000	71.351	-35.5165
124.099998	71.222	-35.3689
125.000000	71.170	-35.2661
126.500000	71.086	-35.0275
128.000000	71.001	-34.7598
131.500000	70.786	-34.4314
132.000000	70.758	-34.4120
134.000000	70.658	-34.2823
136.000000	70.571	-33.9721
138.000000	70.486	-33.5410
140.000000	70.407	-33.1112
143.000000	70.291	-32.5453
145.000000	70.202	-32.1336
147.500000	70.088	-31.5729
150.000000	69.976	-31.0077
152.500000	69.870	-30.5020
155.000000	69.778	-29.9754
157.500000	69.696	-29.3167
160.000000	69.628	-28.6293
162.500000	69.576	-28.0445
165.000000	69.530	-27.5069
167.500000	69.488	-26.9328
170.000000	69.464	-26.3431
172.500000	69.453	-25.7860
175.000000	69.439	-25.2887
177.500000	69.416	-24.8410
180.000000	69.385	-24.4139
182.500000	69.354	-23.9808
185.000000	69.322	-23.5269
187.500000	69.284	-23.0399
190.000000	69.245	-22.5265
192.500000	69.214	-22.0432
195.000000	69.196	-21.6359
197.500000	69.188	-21.2927
200.000000	69.194	-20.9720
203.000000	69.231	-20.5977
206.000000	69.299	-20.2298
209.000000	69.377	-19.8691
212.000000	69.442	-19.5007
214.000000	69.475	-19.2474
218.000000	69.520	-18.7933
220.000000	69.535	-18.6238
224.000000	69.557	-18.3784
227.000000	69.572	-18.1953
230.000000	69.588	-18.0032
233.000000	69.610	-17.8543
236.000000	69.642	-17.7430
240.000000	69.690	-17.5623
243.000000	69.717	-17.4363
247.000000	69.733	-17.3824
250.000000	69.738	-17.4196
254.000000	69.749	-17.4516
258.000000	69.764	-17.3905
262.000000	69.777	-17.3127
265.000000	69.789	-17.2902
269.000000	69.806	-17.3131
272.000000	69.818	-17.3552
276.000000	69.837	-17.4187
280.000000	69.861	-17.4797
285.000000	69.892	-17.5534
290.000000	69.915	-17.6568
295.000000	69.933	-17.7965
300.000000	69.944	-17.9426
304.000000	69.942	-18.0483
307.000000	69.935	-18.1168
311.000000	69.922	-18.2122
315.000000	69.911	-18.3394
320.000000	69.902	-18.5394
325.000000	69.890	-18.7262
330.000000	69.880	-18.8728
335.000000	69.879	-18.9951
340.000000	69.887	-19.0874
345.000000	69.894	-19.1743
350.000000	69.881	-19.2859
355.000000	69.851	-19.3931
360.000000	69.816	-19.4770
365.000000	69.785	-19.5528
370.000000	69.761	-19.6364
375.000000	69.741	-19.7391
382.000000	69.717	-19.8366
387.000000	69.704	-19.8147
395.000000	69.699	-19.7878
400.000000	69.696	-19.8718
406.000000	69.676	-20.0359
412.000000	69.640	-20.1745
418.000000	69.597	-20.1911
425.000000	69.552	-20.0964
431.000000	69.527	-20.0449
437.000000	69.513	-20.0615
444.000000	69.504	-20.1233
450.000000	69.497	-20.1732
455.000000	69.487	-20.2168
462.000000	69.471	-20.2931
468.000000	69.454	-20.3403
475.000000	69.425	-20.3759
482.000000	69.389	-20.4251
487.000000	69.363	-20.4752
494.000000	69.330	-20.5744
500.000000	69.307	-20.6836
508.000000	69.279	-20.8365
515.000000	69.249	-20.9865
522.000000	69.213	-21.1428
530.000000	69.165	-21.2889
538.000000	69.114	-21.3867
545.000000	69.073	-21.4355
552.000000	69.033	-21.4511
560.000000	68.986	-21.4398
570.000000	68.922	-21.4185
580.000000	68.857	-21.3843
590.000000	68.794	-21.3790
600.000000	68.723	-21.3491
608.000000	68.662	-21.2345
615.000000	68.610	-21.0802
622.000000	68.562	-20.9132
630.000000	68.513	-20.7505
640.000000	68.451	-20.5895
650.000000	68.383	-20.3536
660.000000	68.311	-19.9648
670.000000	68.246	-19.5461
680.000000	68.196	-19.1965
690.000000	68.157	-18.8454
700.000000	68.113	-18.4000
710.000000	68.060	-17.8905
720.000000	68.007	-17.4314
730.000000	67.959	-17.0776
740.000000	67.919	-16.7424
750.000000	67.884	-16.3352
762.000000	67.839	-15.7550
775.000000	67.794	-15.1543
788.000000	67.758	-14.6149
800.000000	67.737	-14.0407
812.000000	67.718	-13.3742
825.000000	67.689	-12.6697
838.000000	67.661	-11.9892
850.000000	67.647	-11.3318
862.000000	67.647	-10.6310
875.000000	67.654	-9.8503
885.000000	67.660	-9.2488
900.000000	67.674	-8.3149
912.000000	67.696	-7.5133
925.000000	67.734	-6.6177
938.000000	67.782	-5.7881
950.000000	67.829	-5.1312
962.000000	67.874	-4.5564
975.000000	67.924	-3.9609
988.000000	67.978	-3.3228
1000.000000	68.032	-2.7211
1015.000000	68.105	-2.0259
1030.000000	68.182	-1.3710
1044.000000	68.256	-0.7712
1060.000000	68.344	-0.1123
1075.000000	68.429	0.4549
1090.000000	68.517	0.9794
1106.000000	68.615	1.5033
1120.000000	68.701	1.9458
1138.000000	68.816	2.4889
1150.000000	68.899	2.8107
1172.000000	69.060	3.3277
1180.000000	69.119	3.4919
1206.000000	69.318	3.9372
1220.000000	69.432	4.1443
1241.000000	69.617	4.4329
1250.000000	69.701	4.5453
1265.000000	69.850	4.7215
1280.000000	70.004	4.8918
1315.000000	70.342	5.2970
1320.000000	70.382	5.3573
1340.000000	70.510	5.5963
1360.000000	70.583	5.8225
1380.000000	70.618	6.0220
1400.000000	70.644	6.2004
1430.000000	70.715	6.4565
1450.000000	70.805	6.6089
1475.000000	70.973	6.7939
1500.000000	71.179	6.9785
1525.000000	71.396	7.1217
1550.000000	71.609	7.2201
1575.000000	71.808	7.2628
1600.000000	72.003	7.1810
1625.000000	72.203	6.9867
1650.000000	72.410	6.7649
1675.000000	72.614	6.5485
1700.000000	72.803	6.3259
1725.000000	72.977	6.1355
1750.000000	73.144	5.9811
1775.000000	73.312	5.8756
1800.000000	73.481	5.8480
1825.000000	73.659	5.8562
1850.000000	73.856	5.8805
1875.000000	74.076	5.9041
1900.000000	74.323	5.8708
1925.000000	74.595	5.7051
1950.000000	74.882	5.3336
1975.000000	75.174	4.7072
2000.000000	75.463	3.8170
2030.000000	75.793	2.4919
2060.000000	76.090	0.9761
2090.000000	76.338	-0.7055
2120.000000	76.542	-2.5021
2140.000000	76.659	-3.7230
2180.000000	76.868	-6.1617
2200.000000	76.971	-7.3570
2240.000000	77.181	-9.7206
2270.000000	77.323	-11.4673
2300.000000	77.446	-13.2105
2330.000000	77.553	-14.9787
2360.000000	77.645	-16.7894
2400.000000	77.745	-19.3096
2430.000000	77.805	-21.2542
2470.000000	77.854	-23.8614
2500.000000	77.859	-25.8190
2540.000000	77.818	-28.4087
2580.000000	77.723	-30.9145
2620.000000	77.581	-33.2338
2650.000000	77.449	-34.7727
2690.000000	77.248	-36.5093
2720.000000	77.086	-37.5646
2760.000000	76.871	-38.6440
2800.000000	76.665	-39.4090
2850.000000	76.442	-40.0522
2900.000000	76.277	-40.4870
2950.000000	76.158	-40.8327
3000.000000	76.075	-41.1284
3040.000000	76.027	-41.3397
3070.000000	75.997	-41.5231
3110.000000	75.962	-41.8198
3150.000000	75.932	-42.1510
3200.000000	75.896	-42.6041
3250.000000	75.862	-43.0682
3300.000000	75.826	-43.4943
3350.000000	75.792	-43.9052
3400.000000	75.755	-44.3303
3450.000000	75.709	-44.7626
3500.000000	75.655	-45.1891
3550.000000	75.595	-45.6061
3600.000000	75.535	-46.0185
3650.000000	75.488	-46.4382
3700.000000	75.452	-46.8429
3750.000000	75.423	-47.2019
3820.000000	75.396	-47.6038
3870.000000	75.385	-47.8062
3950.000000	75.381	-48.0294
4000.000000	75.387	-48.1425
4060.000000	75.398	-48.3038
4120.000000	75.404	-48.4789
4180.000000	75.405	-48.6595
4250.000000	75.393	-49.0044
4310.000000	75.365	-49.4444
4370.000000	75.329	-49.9345
4440.000000	75.299	-50.5251
4500.000000	75.290	-51.0733
4550.000000	75.288	-51.5786
4620.000000	75.286	-52.3398
4680.000000	75.274	-53.0106
4750.000000	75.241	-53.7890
4820.000000	75.184	-54.5466
4870.000000	75.129	-55.0630
4940.000000	75.035	-55.7272
5000.000000	74.945	-56.2216
5080.000000	74.812	-56.7670
5150.000000	74.692	-57.1878
5220.000000	74.573	-57.5945
5300.000000	74.431	-58.0417
5380.000000	74.270	-58.4546
5450.000000	74.108	-58.7587
5520.000000	73.921	-58.9901
5600.000000	73.683	-59.1348
5700.000000	73.360	-59.0204
5800.000000	73.036	-58.4594
5900.000000	72.744	-57.4501
6000.000000	72.498	-56.0908
6080.000000	72.324	-54.8239
6150.000000	72.182	-53.5880
6220.000000	72.052	-52.2307
6300.000000	71.923	-50.5561
6400.000000	71.801	-48.3268
6500.000000	71.727	-45.9764
6600.000000	71.707	-43.5342
6700.000000	71.753	-41.0501
6800.000000	71.876	-38.6117
6900.000000	72.079	-36.2625
7000.000000	72.363	-34.0595
7100.000000	72.732	-32.1469
7200.000000	73.181	-30.6755
7300.000000	73.706	-29.7649
7400.000000	74.310	-29.4771
7500.000000	75.001	-29.9236
7620.000000	75.913	-31.7662
7750.000000	76.884	-35.9534
7880.000000	77.626	-42.7623
8000.000000	77.903	-50.9718
8120.000000	77.662	-60.0030
8250.000000	76.803	-69.1693
8380.000000	75.435	-76.2335
8500.000000	73.887	-80.1254
8620.000000	72.231	-81.3047
8750.000000	70.481	-79.7429
8850.000000	69.244	-76.8425
9000.000000	67.632	-70.4579
9120.000000	66.563	-64.1249
9250.000000	65.624	-56.4435
9380.000000	64.905	-48.2564
9500.000000	64.427	-40.5095
9620.000000	64.114	-32.7397
9750.000000	63.947	-24.4345
9880.000000	63.942	-16.3579
10000.000000	64.067	-9.1438
10150.000000	64.382	-0.5069
10300.000000	64.859	7.5750
10440.000000	65.434	14.5082
10600.000000	66.232	21.5663
10750.000000	67.093	27.1599
10900.000000	68.028	31.5885
11060.000000	69.055	34.9875
11200.000000	69.935	36.9493
11380.000000	71.015	38.3550
11500.000000	71.713	38.7244
11720.000000	72.984	38.1938
11800.000000	73.441	37.5208
12060.000000	74.771	33.2556
12200.000000	75.288	29.7826
12410.000000	75.699	23.7375
12500.000000	75.730	21.1234
12650.000000	75.595	17.1651
12800.000000	75.252	14.1083
13150.000000	73.932	12.0594
13200.000000	73.718	12.3795
13400.000000	72.899	14.9983
13600.000000	72.288	19.2580
13800.000000	72.060	24.3908
14000.000000	72.287	29.4854
14300.000000	73.401	34.8845
14500.000000	74.466	35.6817
14750.000000	75.806	32.6365
15000.000000	76.796	25.3844
15250.000000	77.153	15.3704
15500.000000	76.757	4.5474
15750.000000	75.679	-5.2888
16000.000000	74.113	-12.9618
16250.000000	72.270	-17.8754
16500.000000	70.329	-19.7049
16750.000000	68.443	-18.3341
17000.000000	66.728	-14.0720
17250.000000	65.255	-7.4287
17500.000000	64.090	1.2245
17750.000000	63.343	11.1577
18000.000000	63.091	20.6722
18250.000000	63.219	27.6892
18500.000000	63.417	31.1800
18750.000000	63.370	31.9269
19000.000000	62.922	31.7157
19250.000000	62.096	32.1883
19500.000000	61.021	34.1777
19750.000000	59.932	37.3389
20000.000000	59.224	39.8957
