* Measurement data measured by REW V5.31.3
* Source: Microphone (USB Audio Device), MICROPHONE (Master Volume), R, volume: 0.500
* Format: 256k Log Swept Sine, 1 sweep at -12.0 dBFS with no timing reference
* Dated: 11-Jan-2025 15:18:43
* REW Settings:
*  C-weighting compensation: Off
*  Target level: 75.0 dB
* Note: 
* Measurement: Redmi Buds 6 Pro (off) R
* Smoothing: 1/12 octave
* Frequency Step: 1/48 octave
* Start Frequency: 20.300 Hz
*
* Freq(Hz)	SPL(dB)	Phase(degrees)
20.299999	81.448	73.0942
20.600000	81.560	72.6633
20.900000	81.705	72.1467
21.200001	81.865	71.6133
21.400000	81.972	71.2581
21.799999	82.176	70.5543
22.000000	82.272	70.2079
22.400000	82.446	69.5294
22.700001	82.563	69.0291
23.000000	82.672	68.5249
23.299999	82.773	68.0031
23.600000	82.869	67.4528
24.000000	82.986	66.6700
24.299999	83.067	66.0544
24.700001	83.168	65.2182
25.000000	83.242	64.5929
25.400000	83.342	63.7694
25.799999	83.444	62.9517
26.200001	83.547	62.1289
26.500000	83.625	61.5058
26.900000	83.727	60.6713
27.200001	83.803	60.0482
27.600000	83.902	59.2265
28.000000	84.001	58.4153
28.500000	84.123	57.4119
29.000000	84.238	56.4244
29.500000	84.346	55.4692
30.000000	84.450	54.5556
30.400000	84.531	53.8442
30.700001	84.592	53.3112
31.100000	84.671	52.5912
31.500000	84.747	51.8598
32.000000	84.835	50.9496
32.500000	84.917	50.0756
33.000000	84.998	49.2545
33.500000	85.080	48.4776
34.000000	85.164	47.7280
34.500000	85.249	46.9946
35.000000	85.333	46.2660
35.500000	85.419	45.5209
36.000000	85.505	44.7415
36.500000	85.587	43.9393
37.000000	85.664	43.1571
37.500000	85.738	42.4327
38.200001	85.850	41.4862
38.700001	85.936	40.7775
39.500000	86.063	39.5086
40.000000	86.128	38.6983
40.599998	86.200	37.8162
41.200001	86.278	37.0542
41.799999	86.365	36.3442
42.500000	86.465	35.4782
43.099998	86.540	34.6738
43.700001	86.607	33.8211
44.400002	86.681	32.7847
45.000000	86.745	31.8839
45.500000	86.798	31.1438
46.200001	86.872	30.1431
46.799999	86.935	29.3236
47.500000	87.008	28.4235
48.200001	87.081	27.5840
48.700001	87.134	26.9861
49.400002	87.204	26.0667
50.000000	87.250	25.1636
50.799999	87.286	23.8697
51.500000	87.312	22.7734
52.200001	87.350	21.7673
53.000000	87.402	20.7103
53.799999	87.453	19.7007
54.500000	87.493	18.8054
55.200001	87.529	17.8765
56.000000	87.567	16.7994
57.000000	87.613	15.4861
58.000000	87.656	14.2121
59.000000	87.697	12.9361
60.000000	87.739	11.6247
60.799999	87.766	10.5721
61.500000	87.784	9.6781
62.200001	87.797	8.8140
63.000000	87.809	7.8471
64.000000	87.824	6.6398
65.000000	87.841	5.4305
66.000000	87.857	4.2367
67.000000	87.868	3.0636
68.000000	87.873	1.9028
69.000000	87.874	0.7474
70.000000	87.875	-0.4168
71.000000	87.874	-1.5987
72.000000	87.867	-2.7694
73.000000	87.854	-3.8839
74.000000	87.835	-4.9349
75.000000	87.811	-5.9775
76.199997	87.777	-7.3045
77.500000	87.727	-8.7716
78.800003	87.669	-10.1495
80.000000	87.615	-11.3641
81.199997	87.557	-12.5499
82.500000	87.484	-13.7925
83.800003	87.401	-14.9920
85.000000	87.321	-16.0419
86.199997	87.239	-17.0439
87.500000	87.142	-18.0984
88.500000	87.060	-18.8953
90.000000	86.930	-20.0745
91.199997	86.828	-20.9766
92.500000	86.721	-21.8697
93.800003	86.618	-22.6711
95.000000	86.527	-23.3543
96.199997	86.435	-24.0072
97.500000	86.331	-24.6859
98.800003	86.225	-25.3321
100.000000	86.132	-25.9029
101.500000	86.022	-26.5815
103.000000	85.913	-27.2132
104.400002	85.811	-27.7773
106.000000	85.701	-28.3745
107.500000	85.612	-28.8542
109.000000	85.527	-29.2849
110.599998	85.427	-29.7382
112.000000	85.332	-30.1431
113.800003	85.215	-30.6152
115.000000	85.143	-30.8875
117.199997	85.016	-31.3463
118.000000	84.972	-31.5060
120.599998	84.833	-32.0382
122.000000	84.762	-32.3281
124.099998	84.652	-32.7089
125.000000	84.602	-32.8475
126.500000	84.517	-33.0573
128.000000	84.432	-33.2681
131.500000	84.242	-33.8826
132.000000	84.215	-33.9748
134.000000	84.106	-34.2992
136.000000	83.994	-34.5117
138.000000	83.885	-34.6193
140.000000	83.779	-34.6972
143.000000	83.635	-34.8374
145.000000	83.548	-34.9120
147.500000	83.449	-34.9523
150.000000	83.358	-34.8941
152.500000	83.272	-34.7472
155.000000	83.188	-34.6043
157.500000	83.110	-34.5109
160.000000	83.043	-34.4145
162.500000	82.988	-34.2929
165.000000	82.940	-34.1509
167.500000	82.898	-33.9549
170.000000	82.862	-33.7094
172.500000	82.830	-33.4404
175.000000	82.805	-33.1798
177.500000	82.785	-32.9457
180.000000	82.769	-32.7559
182.500000	82.753	-32.5965
185.000000	82.734	-32.4300
187.500000	82.706	-32.2619
190.000000	82.673	-32.1293
192.500000	82.649	-32.0242
195.000000	82.639	-31.9232
197.500000	82.643	-31.8219
200.000000	82.660	-31.7204
203.000000	82.699	-31.6468
206.000000	82.759	-31.6600
209.000000	82.829	-31.6999
212.000000	82.893	-31.7451
214.000000	82.928	-31.7983
218.000000	82.983	-31.9766
220.000000	83.006	-32.0930
224.000000	83.044	-32.3688
227.000000	83.062	-32.5937
230.000000	83.069	-32.8073
233.000000	83.069	-33.0051
236.000000	83.067	-33.1974
240.000000	83.062	-33.4554
243.000000	83.052	-33.6358
247.000000	83.022	-33.7990
250.000000	82.995	-33.8190
254.000000	82.970	-33.6708
258.000000	82.974	-33.2983
262.000000	83.018	-32.8325
265.000000	83.081	-32.5694
269.000000	83.193	-32.4760
272.000000	83.283	-32.6112
276.000000	83.395	-33.0047
280.000000	83.491	-33.5464
285.000000	83.590	-34.3186
290.000000	83.666	-35.1396
295.000000	83.717	-35.9591
300.000000	83.741	-36.7188
304.000000	83.748	-37.2546
307.000000	83.751	-37.6310
311.000000	83.754	-38.1376
315.000000	83.753	-38.6759
320.000000	83.745	-39.3618
325.000000	83.732	-39.9771
330.000000	83.715	-40.5123
335.000000	83.699	-41.0050
340.000000	83.687	-41.4610
345.000000	83.681	-41.8917
350.000000	83.677	-42.2769
355.000000	83.673	-42.6016
360.000000	83.665	-42.8739
365.000000	83.654	-43.1071
370.000000	83.646	-43.3053
375.000000	83.641	-43.4975
382.000000	83.631	-43.8688
387.000000	83.620	-44.2434
395.000000	83.610	-44.9011
400.000000	83.607	-45.3321
406.000000	83.599	-45.9316
412.000000	83.583	-46.5834
418.000000	83.570	-47.1982
425.000000	83.563	-47.8459
431.000000	83.556	-48.3595
437.000000	83.545	-48.8388
444.000000	83.533	-49.3356
450.000000	83.526	-49.6944
455.000000	83.524	-49.9476
462.000000	83.525	-50.2837
468.000000	83.527	-50.6063
475.000000	83.531	-51.0161
482.000000	83.542	-51.4117
487.000000	83.555	-51.6841
494.000000	83.573	-52.0773
500.000000	83.588	-52.4380
508.000000	83.610	-52.9366
515.000000	83.632	-53.3557
522.000000	83.657	-53.7418
530.000000	83.692	-54.1768
538.000000	83.732	-54.6502
545.000000	83.767	-55.0890
552.000000	83.799	-55.5282
560.000000	83.832	-56.0392
570.000000	83.868	-56.7259
580.000000	83.909	-57.4139
590.000000	83.956	-58.0970
600.000000	83.996	-58.8129
608.000000	84.020	-59.3690
615.000000	84.041	-59.8153
622.000000	84.065	-60.2279
630.000000	84.097	-60.6713
640.000000	84.144	-61.2125
650.000000	84.199	-61.8205
660.000000	84.263	-62.5389
670.000000	84.332	-63.3135
680.000000	84.394	-64.0824
690.000000	84.451	-64.8716
700.000000	84.506	-65.7566
710.000000	84.555	-66.7043
720.000000	84.598	-67.6422
730.000000	84.649	-68.5529
740.000000	84.708	-69.4358
750.000000	84.767	-70.2862
762.000000	84.829	-71.2602
775.000000	84.889	-72.3169
788.000000	84.944	-73.4283
800.000000	84.996	-74.5316
812.000000	85.052	-75.6818
825.000000	85.114	-76.9597
838.000000	85.175	-78.2744
850.000000	85.225	-79.4986
862.000000	85.266	-80.6969
875.000000	85.305	-81.9389
885.000000	85.331	-82.8387
900.000000	85.356	-84.0947
912.000000	85.361	-85.0421
925.000000	85.352	-86.0394
938.000000	85.333	-87.0224
950.000000	85.311	-87.9308
962.000000	85.283	-88.8443
975.000000	85.244	-89.8200
988.000000	85.194	-90.7798
1000.000000	85.135	-91.6744
1015.000000	85.046	-92.7911
1030.000000	84.952	-93.8313
1044.000000	84.875	-94.6363
1060.000000	84.801	-95.3184
1075.000000	84.726	-95.7778
1090.000000	84.641	-96.1107
1106.000000	84.552	-96.3634
1120.000000	84.485	-96.4950
1138.000000	84.419	-96.5171
1150.000000	84.389	-96.4602
1172.000000	84.353	-96.2978
1180.000000	84.343	-96.2475
1206.000000	84.334	-96.1476
1220.000000	84.352	-96.0730
1241.000000	84.421	-95.8984
1250.000000	84.463	-95.8071
1265.000000	84.547	-95.6527
1280.000000	84.643	-95.5393
1315.000000	84.877	-95.6453
1320.000000	84.907	-95.7051
1340.000000	85.008	-96.0530
1360.000000	85.078	-96.5551
1380.000000	85.124	-97.1819
1400.000000	85.164	-97.9289
1430.000000	85.251	-99.2283
1450.000000	85.344	-100.1298
1475.000000	85.508	-101.1908
1500.000000	85.705	-102.2221
1525.000000	85.910	-103.3354
1550.000000	86.114	-104.5802
1575.000000	86.317	-106.0023
1600.000000	86.516	-107.6813
1625.000000	86.702	-109.6302
1650.000000	86.881	-111.7536
1675.000000	87.061	-113.8722
1700.000000	87.238	-115.9003
1725.000000	87.411	-117.8989
1750.000000	87.582	-119.9198
1775.000000	87.753	-121.9426
1800.000000	87.925	-123.9238
1825.000000	88.100	-125.8398
1850.000000	88.286	-127.7021
1875.000000	88.484	-129.5660
1900.000000	88.688	-131.5252
1925.000000	88.894	-133.6440
1950.000000	89.109	-135.9192
1975.000000	89.334	-138.3018
2000.000000	89.564	-140.7540
2030.000000	89.843	-143.7732
2060.000000	90.128	-146.8466
2090.000000	90.413	-149.9417
2120.000000	90.683	-153.1017
2140.000000	90.848	-155.3004
2180.000000	91.143	-159.9585
2200.000000	91.274	-162.3732
2240.000000	91.500	-167.2832
2270.000000	91.634	-171.0817
2300.000000	91.728	-174.9886
2330.000000	91.783	-178.8746
2360.000000	91.803	177.4498
2400.000000	91.782	173.0735
2430.000000	91.734	170.1653
2470.000000	91.633	166.5535
2500.000000	91.529	163.9117
2540.000000	91.356	160.4378
2580.000000	91.151	157.0591
2620.000000	90.928	153.7781
2650.000000	90.751	151.3750
2690.000000	90.510	148.2680
2720.000000	90.323	146.0232
2760.000000	90.066	143.2042
2800.000000	89.810	140.7136
2850.000000	89.509	138.2525
2900.000000	89.235	136.5137
2950.000000	88.982	135.2852
3000.000000	88.738	134.3490
3040.000000	88.550	133.7693
3070.000000	88.414	133.3987
3110.000000	88.239	132.9550
3150.000000	88.069	132.5881
3200.000000	87.873	132.2319
3250.000000	87.695	131.8901
3300.000000	87.529	131.5923
3350.000000	87.378	131.5948
3400.000000	87.248	132.0750
3450.000000	87.135	132.9765
3500.000000	87.037	134.0725
3550.000000	86.948	135.1142
3600.000000	86.875	135.9456
3650.000000	86.820	136.5291
3700.000000	86.790	136.9490
3750.000000	86.793	137.3249
3820.000000	86.861	137.8400
3870.000000	86.951	138.1596
3950.000000	87.151	138.6022
4000.000000	87.288	138.8558
4060.000000	87.433	139.0607
4120.000000	87.538	139.0711
4180.000000	87.602	138.8024
4250.000000	87.626	138.1405
4310.000000	87.609	137.3913
4370.000000	87.564	136.5866
4440.000000	87.483	135.5463
4500.000000	87.383	134.4120
4550.000000	87.270	133.2701
4620.000000	87.066	131.6479
4680.000000	86.856	130.6082
4750.000000	86.571	130.1527
4820.000000	86.248	130.5710
4870.000000	85.994	131.2345
4940.000000	85.611	132.3307
5000.000000	85.263	133.2069
5080.000000	84.783	134.1966
5150.000000	84.362	135.0414
5220.000000	83.951	136.0109
5300.000000	83.499	137.3850
5380.000000	83.064	139.3013
5450.000000	82.704	141.6672
5520.000000	82.368	144.6395
5600.000000	82.016	148.4756
5700.000000	81.625	153.6102
5800.000000	81.303	159.0212
5900.000000	81.048	163.9693
6000.000000	80.842	167.8658
6080.000000	80.711	170.3858
6150.000000	80.614	172.2252
6220.000000	80.528	173.6925
6300.000000	80.444	174.9560
6400.000000	80.371	176.1855
6500.000000	80.338	177.2282
6600.000000	80.342	178.2225
6700.000000	80.395	179.5455
6800.000000	80.512	-178.6071
6900.000000	80.686	-176.5429
7000.000000	80.917	-174.4969
7100.000000	81.214	-172.4772
7200.000000	81.587	-170.4649
7300.000000	82.045	-168.4544
7400.000000	82.598	-166.5560
7500.000000	83.252	-165.0225
7620.000000	84.158	-164.1327
7750.000000	85.214	-165.0758
7880.000000	86.221	-168.8941
8000.000000	86.984	-175.3820
8120.000000	87.486	175.7816
8250.000000	87.642	164.7940
8380.000000	87.343	153.6026
8500.000000	86.683	144.1036
8620.000000	85.737	136.2438
8750.000000	84.521	130.1349
8850.000000	83.532	127.1918
9000.000000	82.064	125.4060
9120.000000	80.954	126.1302
9250.000000	79.848	128.8072
9380.000000	78.863	132.8942
9500.000000	78.072	137.3155
9620.000000	77.389	141.9266
9750.000000	76.758	147.0914
9880.000000	76.233	152.6527
10000.000000	75.834	158.2560
10150.000000	75.442	166.0455
10300.000000	75.164	175.0717
10440.000000	75.009	-175.1633
10600.000000	74.953	-162.8215
10750.000000	75.016	-150.9784
10900.000000	75.196	-139.7580
11060.000000	75.527	-129.1172
11200.000000	75.944	-120.9595
11380.000000	76.684	-111.8458
11500.000000	77.319	-106.8260
11720.000000	78.747	-100.9890
11800.000000	79.317	-100.1778
12060.000000	81.052	-102.1123
12200.000000	81.692	-105.4729
12410.000000	81.957	-111.8843
12500.000000	81.776	-114.4213
12650.000000	81.101	-117.3624
12800.000000	80.040	-118.0092
13150.000000	76.727	-110.1825
13200.000000	76.217	-108.2620
13400.000000	74.200	-99.7404
13600.000000	72.337	-90.8993
13800.000000	70.752	-81.5816
14000.000000	69.499	-70.2915
14300.000000	68.210	-46.2846
14500.000000	67.667	-25.7632
14750.000000	67.240	2.4192
15000.000000	67.025	31.5867
15250.000000	66.943	59.1243
15500.000000	66.921	81.8553
15750.000000	66.897	97.2691
16000.000000	66.810	105.0706
16250.000000	66.549	107.4568
16500.000000	65.941	107.9285
16750.000000	64.829	109.4558
17000.000000	63.154	114.4627
17250.000000	61.011	126.0604
17500.000000	58.752	148.0987
17750.000000	56.871	178.4099
18000.000000	55.577	-153.6549
18250.000000	54.719	-131.6825
18500.000000	54.133	-113.6037
18750.000000	53.748	-98.6020
19000.000000	53.462	-86.7629
19250.000000	53.133	-77.7778
19500.000000	52.704	-70.6006
19750.000000	52.229	-64.5966
20000.000000	51.874	-60.7103
