* Measurement data measured by REW V5.31.3
* Source: Microphone (6- USB Sound Device        ), MICROPHONE (Master Volume), L, volume: 0.700
* Format: 256k Log Swept Sine, 1 sweep at -12.0 dBFS with no timing reference
* Dated: 23-May-2025 15:36:59
* REW Settings:
*  C-weighting compensation: Off
*  Target level: 75.0 dB
* Note: 
* Measurement: Rose Openfree Bass L
* Smoothing: 1/12 octave
* Frequency Step: 1/48 octave
* Start Frequency: 20.300 Hz
*
* Freq(Hz)	SPL(dB)	Phase(degrees)
20.299999	30.544	15.3139
20.600000	30.716	-0.2418
20.900000	31.257	-12.2056
21.200001	32.287	-17.6243
21.400000	33.222	-19.0906
21.799999	35.336	-21.9390
22.000000	36.337	-24.5560
22.400000	37.941	-32.4016
22.700001	38.700	-39.7059
23.000000	39.045	-47.3223
23.299999	38.965	-54.5542
23.600000	38.449	-60.7858
24.000000	37.083	-66.3190
24.299999	35.596	-67.0837
24.700001	33.304	-60.9673
25.000000	31.857	-51.0913
25.400000	31.049	-39.5895
25.799999	31.161	-38.1522
26.200001	31.234	-44.5793
26.500000	30.983	-51.2771
26.900000	30.211	-58.5017
27.200001	29.464	-59.9613
27.600000	28.881	-54.1429
28.000000	29.449	-43.3840
28.500000	31.152	-34.9609
29.000000	32.645	-32.5460
29.500000	33.603	-30.7255
30.000000	34.189	-27.5087
30.400000	34.417	-24.7209
30.700001	34.379	-23.0983
31.100000	33.932	-21.7307
31.500000	32.936	-20.7934
32.000000	30.964	-18.4396
32.500000	28.888	-12.9747
33.000000	28.523	-8.8051
33.500000	30.147	-11.9883
34.000000	32.015	-18.2161
34.500000	33.326	-23.1414
35.000000	34.071	-26.1523
35.500000	34.465	-28.4861
36.000000	34.664	-31.7868
36.500000	34.680	-36.2581
37.000000	34.561	-39.5381
37.500000	34.674	-37.8047
38.200001	36.190	-27.1590
38.700001	37.858	-22.3460
39.500000	39.720	-24.8071
40.000000	39.932	-29.3444
40.599998	39.145	-34.6069
41.200001	37.420	-37.0010
41.799999	35.576	-34.5923
42.500000	35.299	-31.2334
43.099998	36.560	-32.5122
43.700001	37.776	-34.0319
44.400002	38.446	-33.3486
45.000000	38.411	-31.2739
45.500000	38.215	-29.3928
46.200001	38.419	-27.1807
46.799999	39.408	-23.5587
47.500000	41.213	-11.7950
48.200001	43.236	5.1568
48.700001	44.446	13.2831
49.400002	45.260	16.3895
50.000000	44.900	13.1589
50.799999	43.143	0.0163
51.500000	41.410	-21.5598
52.200001	40.815	-39.4008
53.000000	41.188	-45.2667
53.799999	41.430	-44.1632
54.500000	41.300	-42.4673
55.200001	40.982	-41.6837
56.000000	40.655	-41.4777
57.000000	40.677	-41.0491
58.000000	41.295	-40.7204
59.000000	42.177	-41.8526
60.000000	42.802	-43.7249
60.799999	43.088	-44.5364
61.500000	43.302	-44.8148
62.200001	43.507	-45.2023
63.000000	43.685	-45.9121
64.000000	43.847	-46.4953
65.000000	44.117	-46.4081
66.000000	44.503	-46.3474
67.000000	44.799	-46.6456
68.000000	44.926	-47.0690
69.000000	44.988	-47.7847
70.000000	45.106	-49.1840
71.000000	45.364	-50.8234
72.000000	45.780	-51.8939
73.000000	46.208	-52.4498
74.000000	46.494	-53.0626
75.000000	46.699	-54.1197
76.199997	47.018	-55.9423
77.500000	47.375	-57.4433
78.800003	47.641	-58.3508
80.000000	47.830	-59.6455
81.199997	47.991	-60.8248
82.500000	48.191	-61.1304
83.800003	48.431	-61.2860
85.000000	48.636	-61.9027
86.199997	48.831	-62.6090
87.500000	49.090	-63.2267
88.500000	49.306	-63.6771
90.000000	49.589	-64.5422
91.199997	49.785	-65.6683
92.500000	49.994	-66.8187
93.800003	50.246	-67.4367
95.000000	50.500	-68.1087
96.199997	50.725	-69.1662
97.500000	50.901	-70.2835
98.800003	51.042	-70.9952
100.000000	51.201	-71.4954
101.500000	51.449	-72.2234
103.000000	51.713	-73.2422
104.400002	51.937	-74.3393
106.000000	52.140	-75.2928
107.500000	52.296	-75.9888
109.000000	52.423	-76.7294
110.599998	52.516	-77.4222
112.000000	52.606	-77.9919
113.800003	52.793	-78.9225
115.000000	52.940	-79.6223
117.199997	53.196	-80.8629
118.000000	53.275	-81.3246
120.599998	53.483	-82.8900
122.000000	53.607	-83.6419
124.099998	53.812	-84.5648
125.000000	53.893	-84.8762
126.500000	54.023	-85.2722
128.000000	54.152	-85.5356
131.500000	54.492	-86.3538
132.000000	54.550	-86.5819
134.000000	54.785	-87.7525
136.000000	55.016	-89.0773
138.000000	55.260	-90.3804
140.000000	55.487	-91.5265
143.000000	55.710	-92.6867
145.000000	55.849	-93.2007
147.500000	56.086	-94.0555
150.000000	56.365	-95.0462
152.500000	56.657	-96.2902
155.000000	56.866	-97.5635
157.500000	56.964	-98.2775
160.000000	57.045	-98.8662
162.500000	57.165	-99.8236
165.000000	57.318	-100.8944
167.500000	57.485	-101.8376
170.000000	57.661	-102.7987
172.500000	57.815	-104.0493
175.000000	57.918	-105.5287
177.500000	58.014	-106.8540
180.000000	58.137	-107.9190
182.500000	58.256	-108.7393
185.000000	58.342	-109.3907
187.500000	58.400	-109.8370
190.000000	58.437	-110.1979
192.500000	58.491	-110.5754
195.000000	58.598	-110.9537
197.500000	58.754	-111.4171
200.000000	58.924	-112.0645
203.000000	59.117	-113.0609
206.000000	59.291	-114.2368
209.000000	59.456	-115.5008
212.000000	59.618	-116.8174
214.000000	59.720	-117.7478
218.000000	59.916	-119.7561
220.000000	60.012	-120.7880
224.000000	60.167	-122.7585
227.000000	60.242	-124.1747
230.000000	60.312	-125.6596
233.000000	60.387	-127.2689
236.000000	60.453	-128.9742
240.000000	60.522	-131.2721
243.000000	60.566	-132.9637
247.000000	60.596	-135.1247
250.000000	60.603	-136.6230
254.000000	60.610	-138.4937
258.000000	60.621	-140.3071
262.000000	60.617	-141.9915
265.000000	60.593	-143.1476
269.000000	60.541	-144.6471
272.000000	60.500	-145.7660
276.000000	60.456	-147.1619
280.000000	60.431	-148.3091
285.000000	60.421	-149.4207
290.000000	60.430	-150.4582
295.000000	60.464	-151.7415
300.000000	60.517	-153.2110
304.000000	60.567	-154.3425
307.000000	60.605	-155.1534
311.000000	60.644	-156.1958
315.000000	60.670	-157.2338
320.000000	60.707	-158.6862
325.000000	60.752	-160.4654
330.000000	60.779	-162.4117
335.000000	60.769	-164.3284
340.000000	60.726	-166.1394
345.000000	60.669	-167.8180
350.000000	60.611	-169.4070
355.000000	60.562	-170.9188
360.000000	60.516	-172.3562
365.000000	60.461	-173.7314
370.000000	60.395	-175.0362
375.000000	60.318	-176.2837
382.000000	60.187	-178.0410
387.000000	60.084	-179.3507
395.000000	59.898	178.4824
400.000000	59.759	177.1691
406.000000	59.567	175.7284
412.000000	59.359	174.5222
418.000000	59.140	173.6599
425.000000	58.880	173.1785
431.000000	58.680	173.2422
437.000000	58.526	173.6870
444.000000	58.433	174.4265
450.000000	58.435	175.0775
455.000000	58.478	175.5797
462.000000	58.572	175.9657
468.000000	58.668	175.6530
475.000000	58.783	174.5221
482.000000	58.872	172.9279
487.000000	58.913	171.6854
494.000000	58.941	169.9745
500.000000	58.936	168.6050
508.000000	58.873	166.9319
515.000000	58.772	165.7510
522.000000	58.660	164.9550
530.000000	58.540	164.4537
538.000000	58.417	164.2109
545.000000	58.314	163.9552
552.000000	58.235	163.4741
560.000000	58.180	162.7469
570.000000	58.139	161.7567
580.000000	58.105	160.8367
590.000000	58.075	160.1928
600.000000	58.050	159.7126
608.000000	58.035	159.3123
615.000000	58.021	158.8596
622.000000	58.010	158.2867
630.000000	57.998	157.5572
640.000000	57.976	156.7031
650.000000	57.944	156.0143
660.000000	57.911	155.3536
670.000000	57.893	154.5743
680.000000	57.889	153.7954
690.000000	57.891	153.1588
700.000000	57.900	152.5018
710.000000	57.918	151.8017
720.000000	57.934	151.0968
730.000000	57.937	150.3262
740.000000	57.930	149.4974
750.000000	57.921	148.6620
762.000000	57.914	147.8474
775.000000	57.909	147.2076
788.000000	57.892	146.5535
800.000000	57.872	145.9998
812.000000	57.857	145.7242
825.000000	57.859	145.9374
838.000000	57.898	146.7886
850.000000	57.967	148.0446
862.000000	58.052	149.4318
875.000000	58.144	150.8886
885.000000	58.206	152.0304
900.000000	58.273	153.8609
912.000000	58.315	155.4051
925.000000	58.370	157.0306
938.000000	58.434	158.5152
950.000000	58.483	159.8111
962.000000	58.508	161.1684
975.000000	58.514	162.7056
988.000000	58.518	164.2379
1000.000000	58.528	165.6393
1015.000000	58.547	167.5369
1030.000000	58.580	169.6492
1044.000000	58.617	171.8029
1060.000000	58.645	174.3523
1075.000000	58.657	176.7151
1090.000000	58.667	179.0794
1106.000000	58.684	-178.3214
1120.000000	58.700	-176.0118
1138.000000	58.708	-173.0480
1150.000000	58.717	-171.0239
1172.000000	58.760	-167.1557
1180.000000	58.781	-165.7275
1206.000000	58.853	-161.2003
1220.000000	58.889	-158.7974
1241.000000	58.950	-155.1012
1250.000000	58.981	-153.4699
1265.000000	59.034	-150.6792
1280.000000	59.088	-147.8042
1315.000000	59.200	-140.9128
1320.000000	59.210	-139.8925
1340.000000	59.224	-135.6693
1360.000000	59.200	-131.3017
1380.000000	59.137	-126.9029
1400.000000	59.056	-122.4622
1430.000000	58.980	-115.5199
1450.000000	58.982	-110.7362
1475.000000	59.039	-104.8095
1500.000000	59.129	-98.7809
1525.000000	59.219	-92.5066
1550.000000	59.300	-85.9475
1575.000000	59.399	-79.2190
1600.000000	59.528	-72.4182
1625.000000	59.696	-65.5211
1650.000000	59.896	-58.4839
1675.000000	60.122	-51.3510
1700.000000	60.372	-44.1331
1725.000000	60.651	-36.8007
1750.000000	60.958	-29.4023
1775.000000	61.284	-21.9943
1800.000000	61.632	-14.5994
1825.000000	62.006	-7.2626
1850.000000	62.399	0.0300
1875.000000	62.812	7.2676
1900.000000	63.251	14.3964
1925.000000	63.714	21.4011
1950.000000	64.197	28.1970
1975.000000	64.699	34.5654
2000.000000	65.221	40.1113
2030.000000	65.838	45.1477
2060.000000	66.417	48.4734
2090.000000	66.996	50.6482
2120.000000	67.591	52.1317
2140.000000	67.984	52.9164
2180.000000	68.762	54.3109
2200.000000	69.152	54.9333
2240.000000	69.948	55.9662
2270.000000	70.571	56.4907
2300.000000	71.210	56.7419
2330.000000	71.844	56.7280
2360.000000	72.467	56.4923
2400.000000	73.280	55.8216
2430.000000	73.874	55.0528
2470.000000	74.646	53.7627
2500.000000	75.214	52.5710
2540.000000	75.952	50.6200
2580.000000	76.665	48.2530
2620.000000	77.338	45.4648
2650.000000	77.811	43.1128
2690.000000	78.395	39.6495
2720.000000	78.794	36.8291
2760.000000	79.268	32.8280
2800.000000	79.672	28.5939
2850.000000	80.057	23.0500
2900.000000	80.293	17.4535
2950.000000	80.397	11.9793
3000.000000	80.393	6.7630
3040.000000	80.330	2.8616
3070.000000	80.253	0.1048
3110.000000	80.113	-3.3568
3150.000000	79.930	-6.5604
3200.000000	79.647	-10.1252
3250.000000	79.329	-13.1951
3300.000000	78.997	-15.8447
3350.000000	78.657	-18.1279
3400.000000	78.320	-20.0707
3450.000000	77.988	-21.7680
3500.000000	77.653	-23.2827
3550.000000	77.307	-24.6286
3600.000000	76.951	-25.7942
3650.000000	76.596	-26.7672
3700.000000	76.256	-27.5762
3750.000000	75.935	-28.2773
3820.000000	75.501	-29.0981
3870.000000	75.192	-29.5269
3950.000000	74.695	-29.8668
4000.000000	74.387	-29.9429
4060.000000	73.999	-29.9709
4120.000000	73.566	-29.8482
4180.000000	73.082	-29.4424
4250.000000	72.461	-28.4867
4310.000000	71.891	-27.0957
4370.000000	71.312	-24.9884
4440.000000	70.675	-21.4742
4500.000000	70.210	-17.5273
4550.000000	69.910	-13.6282
4620.000000	69.664	-7.3763
4680.000000	69.653	-1.4555
4750.000000	69.920	5.7725
4820.000000	70.520	12.7257
4870.000000	71.141	16.9479
4940.000000	72.202	21.0738
5000.000000	73.193	22.7008
5080.000000	74.490	22.2593
5150.000000	75.489	19.7272
5220.000000	76.275	15.7232
5300.000000	76.872	10.1927
5380.000000	77.168	4.4390
5450.000000	77.229	-0.3106
5520.000000	77.161	-4.5372
5600.000000	76.994	-8.6281
5700.000000	76.738	-12.7711
5800.000000	76.492	-16.1535
5900.000000	76.292	-19.1238
6000.000000	76.135	-22.0077
6080.000000	76.019	-24.4510
6150.000000	75.902	-26.7838
6220.000000	75.754	-29.3357
6300.000000	75.521	-32.5133
6400.000000	75.089	-36.6723
6500.000000	74.461	-40.5735
6600.000000	73.640	-43.6153
6700.000000	72.675	-45.2665
6800.000000	71.649	-45.1772
6900.000000	70.654	-43.1438
7000.000000	69.792	-39.1714
7100.000000	69.178	-33.5847
7200.000000	68.907	-26.9797
7300.000000	69.028	-20.1147
7400.000000	69.533	-13.8391
7500.000000	70.359	-8.8353
7620.000000	71.634	-4.9191
7750.000000	73.169	-2.9692
7880.000000	74.649	-2.0052
8000.000000	75.817	0.2876
8120.000000	76.683	5.5576
8250.000000	77.134	14.0550
8380.000000	77.013	24.6627
8500.000000	76.472	36.9687
8620.000000	75.677	52.6231
8750.000000	74.727	73.8342
8850.000000	74.047	92.9199
9000.000000	73.232	124.6589
9120.000000	72.786	151.2464
9250.000000	72.482	-179.9897
9380.000000	72.317	-151.6086
9500.000000	72.262	-125.7263
9620.000000	72.283	-100.1162
9750.000000	72.373	-72.7135
9880.000000	72.511	-45.8043
10000.000000	72.659	-21.5933
10150.000000	72.835	7.7211
10300.000000	72.960	36.0431
10440.000000	72.996	61.7518
10600.000000	72.916	90.3988
10750.000000	72.695	116.2999
10900.000000	72.292	141.2447
11060.000000	71.613	167.3741
11200.000000	70.796	-168.9158
11380.000000	69.509	-135.3748
11500.000000	68.563	-110.9326
11720.000000	66.747	-63.3254
11800.000000	66.075	-45.3487
12060.000000	63.915	16.8656
12200.000000	62.821	53.6688
12410.000000	61.351	111.3986
12500.000000	60.792	136.1353
12650.000000	59.954	177.8287
12800.000000	59.234	-138.6479
13150.000000	57.841	-47.0546
13200.000000	57.623	-36.8113
13400.000000	56.533	-0.9683
13600.000000	54.985	31.8381
13800.000000	53.067	65.3763
14000.000000	51.077	97.7716
14300.000000	49.052	138.9321
14500.000000	48.926	166.4972
14750.000000	49.773	-147.6970
15000.000000	50.898	-89.2050
15250.000000	51.730	-33.3728
15500.000000	51.992	17.5962
15750.000000	51.679	71.5676
16000.000000	50.905	129.8174
16250.000000	49.755	-175.6680
16500.000000	48.380	-137.6448
16750.000000	47.376	-143.2594
17000.000000	47.419	-173.4656
17250.000000	47.944	-149.8948
17500.000000	48.211	-105.4988
17750.000000	48.083	-48.0858
18000.000000	47.659	23.4663
18250.000000	47.093	111.0376
18500.000000	46.561	-173.7710
18750.000000	46.261	-128.6655
19000.000000	46.441	-143.2224
19250.000000	47.126	-145.4558
19500.000000	48.082	-113.5276
19750.000000	49.042	-85.6538
20000.000000	49.674	-70.3728
