* Measurement data measured by REW V5.31.3
* Source: Microphone (6- USB Sound Device        ), MICROPHONE (Master Volume), L, volume: 0.700
* Format: 256k Log Swept Sine, 1 sweep at -12.0 dBFS with no timing reference
* Dated: 04-Jun-2025 16:17:11
* REW Settings:
*  C-weighting compensation: Off
*  Target level: 75.0 dB
* Note: 
* Measurement: SGB FE Smooth L
* Smoothing: 1/12 octave
* Frequency Step: 1/48 octave
* Start Frequency: 20.300 Hz
*
* Freq(Hz)	SPL(dB)	Phase(degrees)
20.299999	74.770	-87.0921
20.600000	74.802	-86.9468
20.900000	74.839	-86.7654
21.200001	74.878	-86.5666
21.400000	74.904	-86.4238
21.799999	74.957	-86.1004
22.000000	74.987	-85.9146
22.400000	75.056	-85.4935
22.700001	75.116	-85.1447
23.000000	75.183	-84.7839
23.299999	75.255	-84.4266
23.600000	75.328	-84.0843
24.000000	75.422	-83.6593
24.299999	75.489	-83.3634
24.700001	75.573	-82.9929
25.000000	75.636	-82.7283
25.400000	75.720	-82.3874
25.799999	75.807	-82.0543
26.200001	75.898	-81.7235
26.500000	75.968	-81.4753
26.900000	76.060	-81.1465
27.200001	76.129	-80.9054
27.600000	76.219	-80.5988
28.000000	76.304	-80.3154
28.500000	76.404	-79.9964
29.000000	76.499	-79.7112
29.500000	76.593	-79.4515
30.000000	76.689	-79.2123
30.400000	76.768	-79.0360
30.700001	76.827	-78.9142
31.100000	76.905	-78.7686
31.500000	76.980	-78.6443
32.000000	77.067	-78.5164
32.500000	77.146	-78.4093
33.000000	77.217	-78.3121
33.500000	77.283	-78.2235
34.000000	77.346	-78.1493
34.500000	77.405	-78.0886
35.000000	77.459	-78.0269
35.500000	77.508	-77.9482
36.000000	77.556	-77.8531
36.500000	77.601	-77.7578
37.000000	77.642	-77.6723
37.500000	77.673	-77.5834
38.200001	77.702	-77.4066
38.700001	77.718	-77.2373
39.500000	77.744	-76.9542
40.000000	77.757	-76.7933
40.599998	77.765	-76.6007
41.200001	77.769	-76.3888
41.799999	77.772	-76.1617
42.500000	77.773	-75.8830
43.099998	77.767	-75.6111
43.700001	77.759	-75.2903
44.400002	77.748	-74.8686
45.000000	77.737	-74.4927
45.500000	77.725	-74.1779
46.200001	77.706	-73.7325
46.799999	77.690	-73.3381
47.500000	77.671	-72.8455
48.200001	77.653	-72.3050
48.700001	77.641	-71.8980
49.400002	77.623	-71.3258
50.000000	77.601	-70.8436
50.799999	77.561	-70.1895
51.500000	77.523	-69.5861
52.200001	77.488	-68.9621
53.000000	77.450	-68.2377
53.799999	77.409	-67.4955
54.500000	77.372	-66.8342
55.200001	77.336	-66.1740
56.000000	77.294	-65.4155
57.000000	77.240	-64.4264
58.000000	77.186	-63.3803
59.000000	77.132	-62.2849
60.000000	77.083	-61.1701
60.799999	77.048	-60.3018
61.500000	77.017	-59.5531
62.200001	76.983	-58.7859
63.000000	76.942	-57.8649
64.000000	76.890	-56.6518
65.000000	76.839	-55.4045
66.000000	76.792	-54.1690
67.000000	76.748	-52.9643
68.000000	76.704	-51.7741
69.000000	76.661	-50.5700
70.000000	76.617	-49.3379
71.000000	76.571	-48.0813
72.000000	76.525	-46.8083
73.000000	76.485	-45.5425
74.000000	76.449	-44.3011
75.000000	76.411	-43.0688
76.199997	76.361	-41.5791
77.500000	76.306	-39.9471
78.800003	76.253	-38.2954
80.000000	76.202	-36.7474
81.199997	76.150	-35.1752
82.500000	76.094	-33.4417
83.800003	76.040	-31.6796
85.000000	75.996	-30.0480
86.199997	75.957	-28.4346
87.500000	75.916	-26.7000
88.500000	75.883	-25.3628
90.000000	75.830	-23.3684
91.199997	75.785	-21.7761
92.500000	75.735	-20.0269
93.800003	75.688	-18.2594
95.000000	75.648	-16.6392
96.199997	75.612	-15.0383
97.500000	75.574	-13.3143
98.800003	75.535	-11.5923
100.000000	75.496	-10.0064
101.500000	75.444	-8.0286
103.000000	75.393	-6.0281
104.400002	75.352	-4.1293
106.000000	75.310	-1.9593
107.500000	75.267	0.0409
109.000000	75.219	2.0192
110.599998	75.170	4.1340
112.000000	75.127	5.9981
113.800003	75.073	8.4096
115.000000	75.041	10.0336
117.199997	74.990	13.0344
118.000000	74.971	14.1237
120.599998	74.907	17.6590
122.000000	74.869	19.5629
124.099998	74.811	22.3848
125.000000	74.789	23.5772
126.500000	74.757	25.5404
128.000000	74.728	27.4811
131.500000	74.653	32.0204
132.000000	74.641	32.6772
134.000000	74.594	35.3229
136.000000	74.555	37.9910
138.000000	74.523	40.6427
140.000000	74.490	43.2088
143.000000	74.434	46.9996
145.000000	74.399	49.5970
147.500000	74.349	52.9176
150.000000	74.292	56.2034
152.500000	74.242	59.4151
155.000000	74.201	62.6259
157.500000	74.163	65.8901
160.000000	74.124	69.1419
162.500000	74.086	72.3195
165.000000	74.053	75.4479
167.500000	74.027	78.5645
170.000000	73.999	81.6977
172.500000	73.966	84.8896
175.000000	73.929	88.1257
177.500000	73.890	91.3244
180.000000	73.846	94.4380
182.500000	73.795	97.4852
185.000000	73.733	100.5172
187.500000	73.658	103.5710
190.000000	73.578	106.6470
192.500000	73.503	109.7457
195.000000	73.439	112.8579
197.500000	73.391	115.9594
200.000000	73.360	119.0378
203.000000	73.343	122.6970
206.000000	73.341	126.3239
209.000000	73.342	129.9486
212.000000	73.335	133.5920
214.000000	73.325	136.0242
218.000000	73.298	140.8879
220.000000	73.281	143.3105
224.000000	73.239	148.1086
227.000000	73.202	151.6528
230.000000	73.164	155.1669
233.000000	73.130	158.6864
236.000000	73.095	162.2219
240.000000	73.046	166.9333
243.000000	73.008	170.4515
247.000000	72.955	175.1416
250.000000	72.917	178.6859
254.000000	72.870	-176.5505
258.000000	72.826	-171.7846
262.000000	72.793	-167.0352
265.000000	72.777	-163.4817
269.000000	72.764	-158.7851
272.000000	72.755	-155.3204
276.000000	72.743	-150.7888
280.000000	72.733	-146.3258
285.000000	72.720	-140.8134
290.000000	72.700	-135.3782
295.000000	72.669	-129.9688
300.000000	72.633	-124.5595
304.000000	72.604	-120.2491
307.000000	72.584	-117.0211
311.000000	72.558	-112.7153
315.000000	72.536	-108.4159
320.000000	72.508	-103.0875
325.000000	72.476	-97.8043
330.000000	72.440	-92.5207
335.000000	72.407	-87.2593
340.000000	72.380	-82.0402
345.000000	72.360	-76.8713
350.000000	72.340	-71.7574
355.000000	72.313	-66.6910
360.000000	72.280	-61.6620
365.000000	72.246	-56.6454
370.000000	72.207	-51.6125
375.000000	72.161	-46.5806
382.000000	72.085	-39.5730
387.000000	72.033	-34.5803
395.000000	71.967	-26.5918
400.000000	71.934	-21.5967
406.000000	71.895	-15.6051
412.000000	71.853	-9.6337
418.000000	71.808	-3.7062
425.000000	71.762	3.1416
431.000000	71.731	8.9462
437.000000	71.700	14.7063
444.000000	71.654	21.3983
450.000000	71.608	27.0911
455.000000	71.569	31.8009
462.000000	71.517	38.3768
468.000000	71.476	44.0057
475.000000	71.429	50.5406
482.000000	71.379	57.0294
487.000000	71.340	61.6345
494.000000	71.282	68.0739
500.000000	71.231	73.6063
508.000000	71.164	80.9635
515.000000	71.104	87.3623
522.000000	71.044	93.7335
530.000000	70.974	100.9882
538.000000	70.907	108.2098
545.000000	70.853	114.4916
552.000000	70.801	120.7357
560.000000	70.740	127.8224
570.000000	70.660	136.5884
580.000000	70.576	145.2802
590.000000	70.481	153.9614
600.000000	70.378	162.6208
608.000000	70.289	169.5283
615.000000	70.213	175.5725
622.000000	70.141	-178.3981
630.000000	70.063	-171.5543
640.000000	69.958	-163.0533
650.000000	69.846	-154.5646
660.000000	69.733	-146.0581
670.000000	69.620	-137.4887
680.000000	69.509	-128.8849
690.000000	69.396	-120.3019
700.000000	69.281	-111.6970
710.000000	69.171	-103.0322
720.000000	69.068	-94.3376
730.000000	68.968	-85.6456
740.000000	68.869	-76.9519
750.000000	68.781	-68.2802
762.000000	68.695	-57.9476
775.000000	68.623	-46.8026
788.000000	68.575	-35.7014
800.000000	68.545	-25.5414
812.000000	68.522	-15.4836
825.000000	68.500	-4.6673
838.000000	68.480	6.0834
850.000000	68.469	15.9285
862.000000	68.469	25.6860
875.000000	68.480	36.1641
885.000000	68.496	44.1565
900.000000	68.526	56.0146
912.000000	68.551	65.4200
925.000000	68.580	75.5613
938.000000	68.610	85.6481
950.000000	68.641	94.8674
962.000000	68.677	103.9894
975.000000	68.726	113.7797
988.000000	68.785	123.4703
1000.000000	68.844	132.3103
1015.000000	68.917	143.2283
1030.000000	68.988	154.0322
1044.000000	69.060	164.0209
1060.000000	69.154	175.3389
1075.000000	69.249	-174.1628
1090.000000	69.345	-163.8154
1106.000000	69.444	-152.9614
1120.000000	69.528	-143.5725
1138.000000	69.631	-131.6152
1150.000000	69.699	-123.7249
1172.000000	69.827	-109.4193
1180.000000	69.876	-104.2556
1206.000000	70.045	-87.6216
1220.000000	70.144	-78.7771
1241.000000	70.306	-65.6774
1250.000000	70.379	-60.1248
1265.000000	70.503	-50.9436
1280.000000	70.631	-41.8440
1315.000000	70.907	-20.8901
1320.000000	70.939	-17.9259
1340.000000	71.037	-6.1205
1360.000000	71.086	5.6151
1380.000000	71.099	17.2428
1400.000000	71.099	28.7173
1430.000000	71.112	45.7047
1450.000000	71.147	56.9260
1475.000000	71.226	70.8412
1500.000000	71.337	84.6252
1525.000000	71.463	98.2465
1550.000000	71.597	111.7410
1575.000000	71.737	125.0627
1600.000000	71.874	138.1942
1625.000000	72.007	151.2137
1650.000000	72.142	164.1183
1675.000000	72.285	176.8357
1700.000000	72.428	-170.6270
1725.000000	72.566	-158.2299
1750.000000	72.700	-145.9624
1775.000000	72.835	-133.8344
1800.000000	72.973	-121.8508
1825.000000	73.116	-110.0164
1850.000000	73.263	-98.3333
1875.000000	73.410	-86.8124
1900.000000	73.556	-75.4513
1925.000000	73.698	-64.2505
1950.000000	73.837	-53.2050
1975.000000	73.975	-42.2952
2000.000000	74.114	-31.5167
2030.000000	74.283	-18.7733
2060.000000	74.450	-6.2837
2090.000000	74.610	5.9553
2120.000000	74.758	17.9724
2140.000000	74.850	25.8822
2180.000000	75.029	41.4928
2200.000000	75.119	49.1968
2240.000000	75.299	64.4136
2270.000000	75.433	75.6184
2300.000000	75.559	86.6287
2330.000000	75.672	97.4786
2360.000000	75.778	108.2092
2400.000000	75.915	122.3164
2430.000000	76.016	132.7089
2470.000000	76.145	146.2955
2500.000000	76.234	156.3035
2540.000000	76.342	169.4508
2580.000000	76.436	-177.6232
2620.000000	76.515	-164.9252
2650.000000	76.564	-155.5411
2690.000000	76.618	-143.2024
2720.000000	76.650	-134.0710
2760.000000	76.687	-122.0403
2800.000000	76.721	-110.1501
2850.000000	76.769	-95.5082
2900.000000	76.820	-81.1619
2950.000000	76.861	-67.1277
3000.000000	76.883	-53.3885
3040.000000	76.893	-42.5565
3070.000000	76.896	-34.5215
3110.000000	76.895	-23.9243
3150.000000	76.892	-13.4548
3200.000000	76.886	-0.5485
3250.000000	76.881	12.1420
3300.000000	76.876	24.6027
3350.000000	76.866	36.8359
3400.000000	76.848	48.8573
3450.000000	76.825	60.6544
3500.000000	76.798	72.2124
3550.000000	76.767	83.5449
3600.000000	76.735	94.6826
3650.000000	76.710	105.6094
3700.000000	76.696	116.3110
3750.000000	76.695	126.8171
3820.000000	76.711	141.2007
3870.000000	76.729	151.1958
3950.000000	76.761	166.7124
4000.000000	76.778	176.1865
4060.000000	76.792	-172.6641
4120.000000	76.794	-161.7847
4180.000000	76.790	-151.1909
4250.000000	76.780	-139.2090
4310.000000	76.772	-129.2720
4370.000000	76.769	-119.6240
4440.000000	76.780	-108.7278
4500.000000	76.811	-99.7197
4550.000000	76.852	-92.4685
4620.000000	76.929	-82.7065
4680.000000	77.006	-74.6860
4750.000000	77.101	-65.7253
4820.000000	77.190	-57.1936
4870.000000	77.249	-51.3611
4940.000000	77.323	-43.5469
5000.000000	77.379	-37.1528
5080.000000	77.444	-29.0149
5150.000000	77.495	-22.2551
5220.000000	77.542	-15.8433
5300.000000	77.596	-8.9316
5380.000000	77.649	-2.4688
5450.000000	77.696	2.7925
5520.000000	77.749	7.6523
5600.000000	77.820	12.6943
5700.000000	77.921	18.2537
5800.000000	78.034	22.9951
5900.000000	78.151	26.8315
6000.000000	78.252	29.7222
6080.000000	78.300	31.3809
6150.000000	78.307	32.3960
6220.000000	78.274	33.0505
6300.000000	78.185	33.4270
6400.000000	78.006	33.4519
6500.000000	77.763	33.0764
6600.000000	77.467	32.3779
6700.000000	77.126	31.4084
6800.000000	76.747	30.1912
6900.000000	76.335	28.7742
7000.000000	75.898	27.2397
7100.000000	75.453	25.6426
7200.000000	75.023	24.0066
7300.000000	74.629	22.3394
7400.000000	74.289	20.6257
7500.000000	74.025	18.7947
7620.000000	73.835	16.2695
7750.000000	73.769	12.8367
7880.000000	73.795	8.2908
8000.000000	73.854	2.8152
8120.000000	73.920	-4.0820
8250.000000	73.978	-13.2866
8380.000000	74.003	-24.3132
8500.000000	73.960	-36.0376
8620.000000	73.809	-49.0803
8750.000000	73.467	-64.3633
8850.000000	73.047	-76.6499
9000.000000	72.131	-95.4141
9120.000000	71.149	-110.2979
9250.000000	69.861	-125.8879
9380.000000	68.382	-140.5654
9500.000000	66.899	-153.0496
9620.000000	65.361	-164.3696
9750.000000	63.709	-175.2686
9880.000000	62.176	175.1516
10000.000000	60.973	167.2002
10150.000000	59.910	157.7231
10300.000000	59.414	147.6812
10440.000000	59.402	136.8911
10600.000000	59.744	122.2886
10750.000000	60.255	106.3169
10900.000000	60.852	88.3203
11060.000000	61.528	67.1770
11200.000000	62.127	47.1826
11380.000000	62.900	19.5178
11500.000000	63.408	-0.0719
11720.000000	64.311	-38.1465
11800.000000	64.630	-52.6492
12060.000000	65.628	-102.1736
12200.000000	66.121	-130.2888
12410.000000	66.748	-174.2705
12500.000000	66.958	166.2546
12650.000000	67.203	133.0427
12800.000000	67.292	99.0233
13150.000000	66.778	17.3248
13200.000000	66.623	5.4812
13400.000000	65.829	-42.0348
13600.000000	64.845	-89.7173
13800.000000	63.789	-137.5928
14000.000000	62.751	174.4355
14300.000000	61.367	102.2833
14500.000000	60.637	53.9307
14750.000000	59.989	-7.2784
15000.000000	59.648	-69.5203
15250.000000	59.580	-133.2976
15500.000000	59.705	160.5513
15750.000000	59.929	91.9479
16000.000000	60.138	21.2444
16250.000000	60.227	-51.7226
16500.000000	60.177	-126.4298
16750.000000	60.076	157.8496
17000.000000	60.034	81.3071
17250.000000	60.083	3.5787
17500.000000	60.177	-76.1723
17750.000000	60.250	-156.5620
18000.000000	60.235	121.3135
18250.000000	60.045	37.6704
18500.000000	59.604	-46.8509
18750.000000	58.899	-131.2923
19000.000000	57.988	145.4243
19250.000000	56.969	65.5329
19500.000000	55.948	-47.7025
19750.000000	55.061	-139.0366
20000.000000	54.531	-166.3079
