* Measurement data measured by REW V5.31.1
* Source: Frequency response averaged data
* Format: Averaged data produced from the rms magnitudes of Shokz Openfit Air, Shokz Openfit Air, Shokz Openfit Air
* Dated: 03-Jun-2024 10:01:24
* REW Settings:
*  C-weighting compensation: Off
*  Target level: 75.0 dB
* Note: 
* Measurement: Sports Open Ear L
* Smoothing: 1/12 octave
* Frequency Step: 1/48 octave
* Start Frequency: 20.300 Hz
*
* Freq(Hz)	SPL(dB)
20.299999	52.915
20.600000	52.705
20.900000	52.189
21.200001	51.676
21.400000	51.456
21.799999	51.433
22.000000	51.634
22.400000	52.307
22.700001	52.910
23.000000	53.523
23.299999	54.122
23.600000	54.698
24.000000	55.427
24.299999	55.946
24.700001	56.584
25.000000	56.997
25.400000	57.438
25.799999	57.786
26.200001	58.155
26.500000	58.529
26.900000	59.214
27.200001	59.845
27.600000	60.750
28.000000	61.603
28.500000	62.462
29.000000	63.067
29.500000	63.509
30.000000	63.934
30.400000	64.334
30.700001	64.673
31.100000	65.158
31.500000	65.652
32.000000	66.256
32.500000	66.840
33.000000	67.420
33.500000	68.000
34.000000	68.568
34.500000	69.107
35.000000	69.607
35.500000	70.059
36.000000	70.461
36.500000	70.814
37.000000	71.136
37.500000	71.449
38.200001	71.915
38.700001	72.275
39.500000	72.863
40.000000	73.209
40.599998	73.581
41.200001	73.902
41.799999	74.188
42.500000	74.509
43.099998	74.789
43.700001	75.077
44.400002	75.418
45.000000	75.713
45.500000	75.966
46.200001	76.340
46.799999	76.679
47.500000	77.046
48.200001	77.307
48.700001	77.400
49.400002	77.436
50.000000	77.468
50.799999	77.637
51.500000	77.888
52.200001	78.146
53.000000	78.381
53.799999	78.559
54.500000	78.690
55.200001	78.808
56.000000	78.931
57.000000	79.084
58.000000	79.260
59.000000	79.448
60.000000	79.621
60.799999	79.746
61.500000	79.854
62.200001	79.966
63.000000	80.086
64.000000	80.206
65.000000	80.299
66.000000	80.389
67.000000	80.485
68.000000	80.587
69.000000	80.696
70.000000	80.804
71.000000	80.899
72.000000	80.983
73.000000	81.065
74.000000	81.156
75.000000	81.259
76.199997	81.391
77.500000	81.534
78.800003	81.676
80.000000	81.813
81.199997	81.953
82.500000	82.103
83.800003	82.247
85.000000	82.370
86.199997	82.484
87.500000	82.602
88.500000	82.689
90.000000	82.811
91.199997	82.901
92.500000	82.992
93.800003	83.072
95.000000	83.137
96.199997	83.195
97.500000	83.244
98.800003	83.275
100.000000	83.293
101.500000	83.312
103.000000	83.334
104.400002	83.352
106.000000	83.359
107.500000	83.346
109.000000	83.317
110.599998	83.274
112.000000	83.229
113.800003	83.167
115.000000	83.122
117.199997	83.028
118.000000	82.990
120.599998	82.858
122.000000	82.778
124.099998	82.644
125.000000	82.582
126.500000	82.473
128.000000	82.356
131.500000	82.062
132.000000	82.018
134.000000	81.843
136.000000	81.667
138.000000	81.492
140.000000	81.323
143.000000	81.112
145.000000	81.010
147.500000	80.925
150.000000	80.885
152.500000	80.891
155.000000	80.945
157.500000	81.046
160.000000	81.183
162.500000	81.339
165.000000	81.503
167.500000	81.669
170.000000	81.831
172.500000	81.983
175.000000	82.122
177.500000	82.246
180.000000	82.359
182.500000	82.461
185.000000	82.554
187.500000	82.643
190.000000	82.730
192.500000	82.820
195.000000	82.912
197.500000	83.004
200.000000	83.091
203.000000	83.187
206.000000	83.274
209.000000	83.360
212.000000	83.451
214.000000	83.510
218.000000	83.616
220.000000	83.663
224.000000	83.754
227.000000	83.821
230.000000	83.883
233.000000	83.941
236.000000	83.997
240.000000	84.066
243.000000	84.115
247.000000	84.182
250.000000	84.229
254.000000	84.285
258.000000	84.334
262.000000	84.380
265.000000	84.414
269.000000	84.457
272.000000	84.487
276.000000	84.524
280.000000	84.563
285.000000	84.619
290.000000	84.686
295.000000	84.758
300.000000	84.836
304.000000	84.903
307.000000	84.954
311.000000	85.020
315.000000	85.085
320.000000	85.166
325.000000	85.247
330.000000	85.323
335.000000	85.395
340.000000	85.468
345.000000	85.541
350.000000	85.614
355.000000	85.687
360.000000	85.754
365.000000	85.808
370.000000	85.851
375.000000	85.886
382.000000	85.930
387.000000	85.960
395.000000	85.998
400.000000	86.010
406.000000	86.009
412.000000	85.992
418.000000	85.966
425.000000	85.926
431.000000	85.883
437.000000	85.829
444.000000	85.759
450.000000	85.698
455.000000	85.649
462.000000	85.585
468.000000	85.533
475.000000	85.470
482.000000	85.405
487.000000	85.361
494.000000	85.308
500.000000	85.272
508.000000	85.241
515.000000	85.227
522.000000	85.223
530.000000	85.226
538.000000	85.233
545.000000	85.243
552.000000	85.258
560.000000	85.282
570.000000	85.323
580.000000	85.375
590.000000	85.441
600.000000	85.523
608.000000	85.596
615.000000	85.667
622.000000	85.745
630.000000	85.844
640.000000	85.977
650.000000	86.116
660.000000	86.257
670.000000	86.403
680.000000	86.556
690.000000	86.713
700.000000	86.877
710.000000	87.045
720.000000	87.220
730.000000	87.401
740.000000	87.589
750.000000	87.782
762.000000	88.017
775.000000	88.275
788.000000	88.533
800.000000	88.764
812.000000	88.991
825.000000	89.230
838.000000	89.462
850.000000	89.669
862.000000	89.869
875.000000	90.075
885.000000	90.223
900.000000	90.422
912.000000	90.561
925.000000	90.700
938.000000	90.831
950.000000	90.945
962.000000	91.045
975.000000	91.135
988.000000	91.210
1000.000000	91.266
1015.000000	91.321
1030.000000	91.358
1044.000000	91.377
1060.000000	91.382
1075.000000	91.373
1090.000000	91.351
1106.000000	91.312
1120.000000	91.271
1138.000000	91.213
1150.000000	91.174
1172.000000	91.102
1180.000000	91.075
1206.000000	90.984
1220.000000	90.938
1241.000000	90.874
1250.000000	90.849
1265.000000	90.810
1280.000000	90.777
1315.000000	90.720
1320.000000	90.713
1340.000000	90.691
1360.000000	90.677
1380.000000	90.676
1400.000000	90.686
1430.000000	90.718
1450.000000	90.751
1475.000000	90.808
1500.000000	90.885
1525.000000	90.982
1550.000000	91.105
1575.000000	91.255
1600.000000	91.425
1625.000000	91.610
1650.000000	91.809
1675.000000	92.023
1700.000000	92.249
1725.000000	92.483
1750.000000	92.721
1775.000000	92.965
1800.000000	93.218
1825.000000	93.482
1850.000000	93.754
1875.000000	94.032
1900.000000	94.317
1925.000000	94.609
1950.000000	94.906
1975.000000	95.209
2000.000000	95.523
2030.000000	95.919
2060.000000	96.316
2090.000000	96.693
2120.000000	97.048
2140.000000	97.276
2180.000000	97.705
2200.000000	97.906
2240.000000	98.294
2270.000000	98.568
2300.000000	98.813
2330.000000	99.026
2360.000000	99.209
2400.000000	99.401
2430.000000	99.503
2470.000000	99.594
2500.000000	99.630
2540.000000	99.632
2580.000000	99.575
2620.000000	99.457
2650.000000	99.338
2690.000000	99.156
2720.000000	99.007
2760.000000	98.795
2800.000000	98.568
2850.000000	98.255
2900.000000	97.910
2950.000000	97.509
3000.000000	97.002
3040.000000	96.514
3070.000000	96.134
3110.000000	95.677
3150.000000	95.318
3200.000000	94.970
3250.000000	94.664
3300.000000	94.372
3350.000000	94.106
3400.000000	93.905
3450.000000	93.822
3500.000000	93.907
3550.000000	94.213
3600.000000	94.761
3650.000000	95.515
3700.000000	96.399
3750.000000	97.336
3820.000000	98.609
3870.000000	99.448
3950.000000	100.641
4000.000000	101.265
4060.000000	101.859
4120.000000	102.294
4180.000000	102.606
4250.000000	102.859
4310.000000	103.003
4370.000000	103.089
4440.000000	103.124
4500.000000	103.099
4550.000000	103.032
4620.000000	102.860
4680.000000	102.640
4750.000000	102.318
4820.000000	101.935
4870.000000	101.611
4940.000000	101.058
5000.000000	100.478
5080.000000	99.549
5150.000000	98.608
5220.000000	97.569
5300.000000	96.282
5380.000000	94.916
5450.000000	93.680
5520.000000	92.432
5600.000000	91.036
5700.000000	89.428
5800.000000	88.069
5900.000000	87.078
6000.000000	86.570
6080.000000	86.525
6150.000000	86.699
6220.000000	87.009
6300.000000	87.455
6400.000000	88.036
6500.000000	88.539
6600.000000	88.866
6700.000000	88.937
6800.000000	88.716
6900.000000	88.235
7000.000000	87.579
7100.000000	86.861
7200.000000	86.231
7300.000000	85.874
7400.000000	85.943
7500.000000	86.470
7620.000000	87.561
7750.000000	89.003
7880.000000	90.387
8000.000000	91.393
8120.000000	92.036
8250.000000	92.291
8380.000000	92.127
8500.000000	91.697
8620.000000	91.107
8750.000000	90.406
8850.000000	89.907
9000.000000	89.325
9120.000000	89.014
9250.000000	88.796
9380.000000	88.644
9500.000000	88.530
9620.000000	88.441
9750.000000	88.398
9880.000000	88.429
10000.000000	88.514
10150.000000	88.634
10300.000000	88.629
10440.000000	88.371
10600.000000	87.787
10750.000000	87.296
10900.000000	87.182
11060.000000	87.345
11200.000000	87.443
11380.000000	87.285
11500.000000	86.977
11720.000000	86.034
11800.000000	85.583
12060.000000	83.807
12200.000000	82.706
12410.000000	80.941
12500.000000	80.169
12650.000000	78.974
12800.000000	78.160
13150.000000	78.693
13200.000000	78.909
13400.000000	79.566
13600.000000	79.639
13800.000000	79.156
14000.000000	78.336
14300.000000	76.888
14500.000000	75.939
14750.000000	74.925
15000.000000	74.261
15250.000000	74.080
15500.000000	74.364
15750.000000	74.797
16000.000000	74.946
16250.000000	74.580
16500.000000	73.745
16750.000000	72.604
17000.000000	71.248
17250.000000	69.656
17500.000000	67.798
17750.000000	65.716
18000.000000	63.572
18250.000000	61.685
18500.000000	60.451
18750.000000	60.015
19000.000000	60.129
19250.000000	60.432
19500.000000	60.686
19750.000000	60.782
