* Measurement data measured by REW V5.31.1
* Source: Microphone (4- USB Audio Device), MICROPHONE (Master Volume), R, volume: 0.910
* Format: 256k Log Swept Sine, 1 sweep at -12.0 dBFS with no timing reference
* Dated: 03-Jun-2024 22:15:36
* REW Settings:
*  C-weighting compensation: Off
*  Target level: 75.0 dB
* Note: 
* Measurement: Shokz Openfit Air Bass L
* Smoothing: 1/12 octave
* Frequency Step: 1/48 octave
* Start Frequency: 20.300 Hz
*
* Freq(Hz)	SPL(dB)	Phase(degrees)
20.299999	50.529	140.6380
20.600000	50.363	140.1680
20.900000	50.067	140.8094
21.200001	49.771	143.7029
21.400000	49.730	147.1245
21.799999	50.449	155.7006
22.000000	51.213	159.2134
22.400000	53.082	162.2320
22.700001	54.409	161.4469
23.000000	55.499	159.2888
23.299999	56.319	156.7497
23.600000	56.898	154.4883
24.000000	57.409	152.4235
24.299999	57.699	151.5345
24.700001	58.091	150.6177
25.000000	58.430	149.6210
25.400000	58.945	147.4568
25.799999	59.507	144.4901
26.200001	60.113	141.2895
26.500000	60.600	139.0666
26.900000	61.287	136.5442
27.200001	61.817	134.9730
27.600000	62.511	133.1949
28.000000	63.173	131.6557
28.500000	63.964	129.8853
29.000000	64.749	128.0034
29.500000	65.531	125.7116
30.000000	66.261	122.9808
30.400000	66.777	120.6649
30.700001	67.123	118.9683
31.100000	67.541	116.8306
31.500000	67.929	114.8109
32.000000	68.388	112.3115
32.500000	68.824	109.7663
33.000000	69.245	107.3085
33.500000	69.680	105.1296
34.000000	70.149	103.2293
34.500000	70.628	101.4093
35.000000	71.069	99.4936
35.500000	71.438	97.4678
36.000000	71.750	95.4023
36.500000	72.048	93.3263
37.000000	72.369	91.2222
37.500000	72.713	89.1070
38.200001	73.195	86.2628
38.700001	73.513	84.3519
39.500000	73.961	81.3145
40.000000	74.220	79.3146
40.599998	74.542	76.8010
41.200001	74.887	74.2199
41.799999	75.228	71.6124
42.500000	75.574	68.4911
43.099998	75.827	65.6208
43.700001	76.074	62.5149
44.400002	76.387	58.7912
45.000000	76.669	55.7333
45.500000	76.883	53.2686
46.200001	77.125	49.6532
46.799999	77.342	46.0405
47.500000	77.760	40.8268
48.200001	78.350	34.7790
48.700001	78.741	30.6602
49.400002	79.075	26.3447
50.000000	79.159	24.4013
50.799999	79.153	23.1830
51.500000	79.163	21.5852
52.200001	79.222	18.8279
53.000000	79.370	15.1221
53.799999	79.579	11.6439
54.500000	79.748	8.8045
55.200001	79.880	5.9709
56.000000	80.022	2.6475
57.000000	80.215	-1.4220
58.000000	80.396	-5.0279
59.000000	80.552	-8.1495
60.000000	80.708	-11.0463
60.799999	80.832	-13.3639
61.500000	80.934	-15.4039
62.200001	81.036	-17.4180
63.000000	81.158	-19.6459
64.000000	81.299	-22.1702
65.000000	81.406	-24.2365
66.000000	81.500	-26.0320
67.000000	81.605	-27.8824
68.000000	81.729	-29.8521
69.000000	81.865	-31.8491
70.000000	81.999	-33.7937
71.000000	82.131	-35.6684
72.000000	82.264	-37.4855
73.000000	82.406	-39.2709
74.000000	82.555	-41.0249
75.000000	82.706	-42.7012
76.199997	82.890	-44.6119
77.500000	83.093	-46.6813
78.800003	83.292	-48.7821
80.000000	83.469	-50.6620
81.199997	83.644	-52.4676
82.500000	83.832	-54.3883
83.800003	84.015	-56.3271
85.000000	84.171	-58.1577
86.199997	84.313	-59.9662
87.500000	84.459	-61.8350
88.500000	84.570	-63.2282
90.000000	84.731	-65.2756
91.199997	84.853	-66.8591
92.500000	84.973	-68.5313
93.800003	85.081	-70.1761
95.000000	85.173	-71.6854
96.199997	85.260	-73.2127
97.500000	85.351	-74.8953
98.800003	85.438	-76.5652
100.000000	85.514	-78.0514
101.500000	85.595	-79.8304
103.000000	85.666	-81.5968
104.400002	85.730	-83.2335
106.000000	85.804	-85.0000
107.500000	85.870	-86.5353
109.000000	85.926	-88.0026
110.599998	85.976	-89.5115
112.000000	86.012	-90.7818
113.800003	86.049	-92.3975
115.000000	86.071	-93.4764
117.199997	86.111	-95.3945
118.000000	86.127	-96.0537
120.599998	86.177	-98.0186
122.000000	86.203	-98.9813
124.099998	86.251	-100.3636
125.000000	86.278	-100.9559
126.500000	86.329	-101.9348
128.000000	86.374	-102.7996
131.500000	86.387	-104.2165
132.000000	86.387	-104.4182
134.000000	86.396	-105.3210
136.000000	86.423	-106.3505
138.000000	86.462	-107.4234
140.000000	86.507	-108.4832
143.000000	86.571	-109.9872
145.000000	86.610	-110.8991
147.500000	86.656	-111.9742
150.000000	86.696	-113.0370
152.500000	86.723	-114.1066
155.000000	86.737	-115.1097
157.500000	86.744	-116.0224
160.000000	86.747	-116.8528
162.500000	86.746	-117.5826
165.000000	86.740	-118.2065
167.500000	86.729	-118.7110
170.000000	86.720	-119.0821
172.500000	86.719	-119.3646
175.000000	86.726	-119.6309
177.500000	86.744	-119.9149
180.000000	86.779	-120.2030
182.500000	86.828	-120.4695
185.000000	86.887	-120.7056
187.500000	86.953	-120.9227
190.000000	87.023	-121.1290
192.500000	87.088	-121.2875
195.000000	87.147	-121.3783
197.500000	87.209	-121.4546
200.000000	87.279	-121.5620
203.000000	87.376	-121.7275
206.000000	87.483	-121.9140
209.000000	87.597	-122.1336
212.000000	87.718	-122.3870
214.000000	87.802	-122.5592
218.000000	87.972	-122.8821
220.000000	88.059	-123.0246
224.000000	88.236	-123.2548
227.000000	88.369	-123.4024
230.000000	88.502	-123.5677
233.000000	88.639	-123.7620
236.000000	88.778	-123.9717
240.000000	88.963	-124.2712
243.000000	89.101	-124.5425
247.000000	89.291	-125.0079
250.000000	89.438	-125.4425
254.000000	89.640	-126.1160
258.000000	89.845	-126.8723
262.000000	90.048	-127.7000
265.000000	90.195	-128.3556
269.000000	90.386	-129.2827
272.000000	90.526	-130.0354
276.000000	90.707	-131.1387
280.000000	90.875	-132.3586
285.000000	91.063	-134.0167
290.000000	91.224	-135.7614
295.000000	91.355	-137.5237
300.000000	91.447	-139.2895
304.000000	91.493	-140.7173
307.000000	91.513	-141.7907
311.000000	91.524	-143.2024
315.000000	91.521	-144.5500
320.000000	91.500	-146.0985
325.000000	91.467	-147.4806
330.000000	91.429	-148.6983
335.000000	91.386	-149.7947
340.000000	91.334	-150.7945
345.000000	91.267	-151.6678
350.000000	91.187	-152.3824
355.000000	91.093	-152.9435
360.000000	90.991	-153.3893
365.000000	90.885	-153.7510
370.000000	90.780	-154.0410
375.000000	90.680	-154.2903
382.000000	90.543	-154.6562
387.000000	90.442	-154.9259
395.000000	90.281	-155.2846
400.000000	90.184	-155.4303
406.000000	90.069	-155.5234
412.000000	89.945	-155.5506
418.000000	89.805	-155.5272
425.000000	89.623	-155.4398
431.000000	89.459	-155.3287
437.000000	89.297	-155.1645
444.000000	89.114	-154.8674
450.000000	88.960	-154.5062
455.000000	88.836	-154.1290
462.000000	88.673	-153.4985
468.000000	88.550	-152.8960
475.000000	88.426	-152.1415
482.000000	88.321	-151.3090
487.000000	88.255	-150.6615
494.000000	88.171	-149.7065
500.000000	88.103	-148.8671
508.000000	88.016	-147.7187
515.000000	87.945	-146.6810
522.000000	87.880	-145.6228
530.000000	87.817	-144.4073
538.000000	87.764	-143.2061
545.000000	87.723	-142.1665
552.000000	87.685	-141.1347
560.000000	87.644	-139.9654
570.000000	87.601	-138.5099
580.000000	87.568	-137.0233
590.000000	87.550	-135.4821
600.000000	87.548	-133.9290
608.000000	87.557	-132.7122
615.000000	87.571	-131.6708
622.000000	87.591	-130.6395
630.000000	87.621	-129.4575
640.000000	87.672	-127.9671
650.000000	87.738	-126.4859
660.000000	87.813	-125.0427
670.000000	87.890	-123.6317
680.000000	87.965	-122.2443
690.000000	88.036	-120.8899
700.000000	88.102	-119.5744
710.000000	88.167	-118.2952
720.000000	88.231	-117.0784
730.000000	88.294	-115.9406
740.000000	88.357	-114.8614
750.000000	88.417	-113.8301
762.000000	88.484	-112.6810
775.000000	88.553	-111.5200
788.000000	88.615	-110.3761
800.000000	88.664	-109.2934
812.000000	88.706	-108.1979
825.000000	88.741	-107.0087
838.000000	88.758	-105.8021
850.000000	88.756	-104.6623
862.000000	88.740	-103.4855
875.000000	88.711	-102.1656
885.000000	88.680	-101.1106
900.000000	88.626	-99.4362
912.000000	88.581	-98.0040
925.000000	88.537	-96.3540
938.000000	88.503	-94.6174
950.000000	88.483	-92.9657
962.000000	88.474	-91.2771
975.000000	88.481	-89.4058
988.000000	88.504	-87.5030
1000.000000	88.539	-85.7285
1015.000000	88.599	-83.4774
1030.000000	88.674	-81.1930
1044.000000	88.751	-79.0890
1060.000000	88.844	-76.8214
1075.000000	88.939	-74.8950
1090.000000	89.043	-73.1704
1106.000000	89.162	-71.5123
1120.000000	89.271	-70.1744
1138.000000	89.410	-68.5831
1150.000000	89.499	-67.5948
1172.000000	89.650	-65.8647
1180.000000	89.702	-65.2372
1206.000000	89.850	-63.1915
1220.000000	89.915	-62.1133
1241.000000	89.992	-60.5235
1250.000000	90.021	-59.8362
1265.000000	90.067	-58.6646
1280.000000	90.110	-57.4710
1315.000000	90.194	-54.7740
1320.000000	90.203	-54.4054
1340.000000	90.236	-52.9337
1360.000000	90.263	-51.3428
1380.000000	90.291	-49.4470
1400.000000	90.326	-47.1177
1430.000000	90.397	-42.8768
1450.000000	90.446	-39.7689
1475.000000	90.502	-35.7712
1500.000000	90.556	-31.6874
1525.000000	90.621	-27.5533
1550.000000	90.705	-23.4720
1575.000000	90.802	-19.5360
1600.000000	90.906	-15.7258
1625.000000	91.016	-11.8961
1650.000000	91.144	-7.8882
1675.000000	91.292	-3.6622
1700.000000	91.452	0.6745
1725.000000	91.618	5.0006
1750.000000	91.791	9.2604
1775.000000	91.970	13.4597
1800.000000	92.157	17.6067
1825.000000	92.354	21.6569
1850.000000	92.561	25.5428
1875.000000	92.778	29.2133
1900.000000	93.003	32.6747
1925.000000	93.237	35.9553
1950.000000	93.480	39.0757
1975.000000	93.734	42.0839
2000.000000	94.006	45.0145
2030.000000	94.357	48.3361
2060.000000	94.710	51.2651
2090.000000	95.043	53.7392
2120.000000	95.352	55.7403
2140.000000	95.550	56.8154
2180.000000	95.935	58.5097
2200.000000	96.127	59.2499
2240.000000	96.517	60.6852
2270.000000	96.799	61.6672
2300.000000	97.045	62.5681
2330.000000	97.245	63.4757
2360.000000	97.406	64.4055
2400.000000	97.562	65.5292
2430.000000	97.633	66.1764
2470.000000	97.668	66.7424
2500.000000	97.652	67.0179
2540.000000	97.582	67.3983
2580.000000	97.472	67.9363
2620.000000	97.329	68.7317
2650.000000	97.203	69.5520
2690.000000	97.017	70.9402
2720.000000	96.865	72.1516
2760.000000	96.643	73.9275
2800.000000	96.398	75.8809
2850.000000	96.063	78.7052
2900.000000	95.695	81.8558
2950.000000	95.259	85.2356
3000.000000	94.717	89.1616
3040.000000	94.221	93.2319
3070.000000	93.856	97.0526
3110.000000	93.438	102.9553
3150.000000	93.112	109.2026
3200.000000	92.772	117.1586
3250.000000	92.468	125.6474
3300.000000	92.227	134.8578
3350.000000	92.100	144.6953
3400.000000	92.137	154.9547
3450.000000	92.373	165.4595
3500.000000	92.827	175.9229
3550.000000	93.491	-174.0987
3600.000000	94.337	-165.1005
3650.000000	95.316	-157.4379
3700.000000	96.377	-151.1782
3750.000000	97.468	-146.3104
3820.000000	98.941	-141.8300
3870.000000	99.900	-140.1187
3950.000000	101.253	-139.4941
4000.000000	101.993	-140.1998
4060.000000	102.766	-141.9875
4120.000000	103.391	-144.6598
4180.000000	103.861	-147.9935
4250.000000	104.226	-152.3995
4310.000000	104.407	-156.2783
4370.000000	104.504	-159.7942
4440.000000	104.561	-163.0514
4500.000000	104.592	-165.3137
4550.000000	104.612	-167.2004
4620.000000	104.610	-170.3590
4680.000000	104.554	-173.7652
4750.000000	104.401	-178.4437
4820.000000	104.148	176.4725
4870.000000	103.895	172.7719
4940.000000	103.423	167.6882
5000.000000	102.907	163.5310
5080.000000	102.063	158.3123
5150.000000	101.178	154.0833
5220.000000	100.176	150.3326
5300.000000	98.925	146.8121
5380.000000	97.590	144.2716
5450.000000	96.367	142.9765
5520.000000	95.105	142.7242
5600.000000	93.655	144.0670
5700.000000	91.953	148.6202
5800.000000	90.520	156.1935
5900.000000	89.486	165.8147
6000.000000	88.935	176.0961
6080.000000	88.846	-176.2472
6150.000000	88.991	-170.5592
6220.000000	89.298	-166.1489
6300.000000	89.781	-162.8798
6400.000000	90.454	-161.4281
6500.000000	91.059	-162.4978
6600.000000	91.490	-165.5209
6700.000000	91.697	-170.0486
6800.000000	91.663	-175.5884
6900.000000	91.373	178.5772
7000.000000	90.810	173.5024
7100.000000	89.973	170.2655
7200.000000	88.903	169.7109
7300.000000	87.706	172.7190
7400.000000	86.610	-179.6553
7500.000000	85.986	-166.8514
7620.000000	86.356	-147.7017
7750.000000	87.937	-131.2280
7880.000000	89.900	-123.6248
8000.000000	91.569	-122.9460
8120.000000	92.928	-126.2218
8250.000000	93.950	-132.2796
8380.000000	94.404	-139.1035
8500.000000	94.304	-144.8608
8620.000000	93.794	-149.2762
8750.000000	92.973	-151.8544
8850.000000	92.291	-152.1871
9000.000000	91.380	-150.6201
9120.000000	90.836	-148.5808
9250.000000	90.452	-147.0742
9380.000000	90.227	-147.8204
9500.000000	90.096	-151.1267
9620.000000	90.011	-156.4467
9750.000000	89.975	-163.4154
9880.000000	90.018	-170.7701
10000.000000	90.130	-177.7033
10150.000000	90.294	173.2381
10300.000000	90.288	163.4588
10440.000000	89.903	153.9701
10600.000000	88.977	144.3633
10750.000000	87.972	137.2920
10900.000000	87.166	130.2572
11060.000000	86.420	120.7338
11200.000000	85.634	111.0226
11380.000000	84.357	98.8050
11500.000000	83.402	91.8742
11720.000000	81.629	82.3976
11800.000000	81.005	79.6927
12060.000000	79.021	71.7701
12200.000000	77.950	67.8290
12410.000000	76.328	62.9451
12500.000000	75.644	61.8805
12650.000000	74.693	63.2132
12800.000000	74.444	69.5211
13150.000000	77.242	76.5606
13200.000000	77.687	74.4678
13400.000000	78.929	60.7164
13600.000000	79.238	43.0163
13800.000000	78.819	25.6205
14000.000000	78.055	10.8535
14300.000000	77.008	-6.9413
14500.000000	76.590	-17.7150
14750.000000	76.410	-31.1023
15000.000000	76.549	-45.2210
15250.000000	76.910	-61.2391
15500.000000	77.388	-79.2543
15750.000000	77.798	-99.5843
16000.000000	77.926	-123.6943
16250.000000	77.624	-150.9840
16500.000000	76.840	-178.0665
16750.000000	75.601	157.1664
17000.000000	73.980	133.6974
17250.000000	72.092	110.0700
17500.000000	70.078	85.6882
17750.000000	68.031	60.4756
18000.000000	66.002	34.1140
18250.000000	64.065	4.3107
18500.000000	62.434	-37.8584
18750.000000	61.433	-127.1624
19000.000000	61.128	170.6404
19250.000000	61.161	138.3465
19500.000000	61.143	111.2513
19750.000000	60.933	88.4035
20000.000000	60.678	75.3326
