* Measurement data measured by REW V5.20.13
* Source: Microphone (4- USB Audio Device), MICROPHONE (Master Volume), L, volume: 0.250. Timing signal peak level -40.6 dBFS, measurement signal peak level -36.6 dBFS
* Format: 256k Log Swept Sine, 1 sweep at -12.0 dBFS using an acoustic timing reference
* Dated: 13-Feb-2023 17:26:42
* REW Settings:
*  C-weighting compensation: Off
*  Target level: 75.0 dB
* Note: 
* Measurement: SoundPEATS Life Classic R
* Smoothing: 1/12 octave
* Frequency Step: 1/48 octave
* Start Frequency: 20.300 Hz
*
* Freq(Hz)	SPL(dB)	Phase(degrees)
20.299999	64.764	92.9664
20.600000	64.806	92.7213
20.900000	64.909	92.1860
21.200001	65.028	91.5430
21.400000	65.112	91.0687
21.799999	65.290	90.0374
22.000000	65.383	89.5002
22.400000	65.574	88.4329
22.700001	65.721	87.6751
23.000000	65.867	86.9655
23.299999	66.012	86.2824
23.600000	66.151	85.5967
24.000000	66.322	84.6396
24.299999	66.440	83.8795
24.700001	66.590	82.8256
25.000000	66.705	82.0227
25.400000	66.875	80.9462
25.799999	67.069	79.8551
26.200001	67.281	78.7471
26.500000	67.444	77.9234
26.900000	67.658	76.8771
27.200001	67.813	76.1589
27.600000	68.012	75.2964
28.000000	68.205	74.4963
28.500000	68.435	73.4608
29.000000	68.638	72.2809
29.500000	68.808	70.9646
30.000000	68.952	69.5972
30.400000	69.058	68.5147
30.700001	69.137	67.7185
31.100000	69.243	66.6786
31.500000	69.352	65.6628
32.000000	69.492	64.4245
32.500000	69.636	63.2014
33.000000	69.782	61.9485
33.500000	69.927	60.6291
34.000000	70.066	59.2425
34.500000	70.200	57.8224
35.000000	70.330	56.4030
35.500000	70.458	55.0000
36.000000	70.583	53.6125
36.500000	70.705	52.2352
37.000000	70.821	50.8626
37.500000	70.931	49.4873
38.200001	71.072	47.5434
38.700001	71.163	46.1342
39.500000	71.296	43.8306
40.000000	71.371	42.3583
40.599998	71.455	40.5811
41.200001	71.530	38.8464
41.799999	71.599	37.2033
42.500000	71.673	35.4058
43.099998	71.729	33.9157
43.700001	71.776	32.4203
44.400002	71.816	30.6515
45.000000	71.839	29.1344
45.500000	71.852	27.8876
46.200001	71.860	26.1782
46.799999	71.865	24.7395
47.500000	71.872	23.0731
48.200001	71.887	21.4088
48.700001	71.898	20.2292
49.400002	71.906	18.6178
50.000000	71.896	17.2927
50.799999	71.861	15.5976
51.500000	71.819	14.1481
52.200001	71.778	12.7109
53.000000	71.736	11.0926
53.799999	71.696	9.5165
54.500000	71.660	8.1761
55.200001	71.621	6.8741
56.000000	71.570	5.4458
57.000000	71.497	3.7816
58.000000	71.414	2.2399
59.000000	71.332	0.7240
60.000000	71.259	-0.8348
60.799999	71.207	-2.0750
61.500000	71.165	-3.1019
62.200001	71.124	-4.0460
63.000000	71.077	-5.0206
64.000000	71.011	-6.1065
65.000000	70.932	-7.1309
66.000000	70.839	-8.2043
67.000000	70.734	-9.3327
68.000000	70.623	-10.4878
69.000000	70.504	-11.6559
70.000000	70.386	-12.7993
71.000000	70.290	-13.9238
72.000000	70.210	-15.0480
73.000000	70.129	-16.1254
74.000000	70.038	-17.1038
75.000000	69.942	-17.9925
76.199997	69.826	-18.9998
77.500000	69.707	-20.0543
78.800003	69.594	-21.0615
80.000000	69.487	-21.9419
81.199997	69.375	-22.7854
82.500000	69.255	-23.6665
83.800003	69.145	-24.5211
85.000000	69.048	-25.3030
86.199997	68.947	-26.0762
87.500000	68.827	-26.8695
88.500000	68.732	-27.4384
90.000000	68.596	-28.2499
91.199997	68.496	-28.8690
92.500000	68.389	-29.4965
93.800003	68.278	-30.0950
95.000000	68.169	-30.6468
96.199997	68.059	-31.1998
97.500000	67.942	-31.7872
98.800003	67.833	-32.3436
100.000000	67.739	-32.8142
101.500000	67.621	-33.3451
103.000000	67.499	-33.8431
104.400002	67.386	-34.2990
106.000000	67.262	-34.8101
107.500000	67.152	-35.2847
109.000000	67.045	-35.7601
110.599998	66.929	-36.2627
112.000000	66.824	-36.6990
113.800003	66.686	-37.2768
115.000000	66.593	-37.6767
117.199997	66.420	-38.3885
118.000000	66.356	-38.6270
120.599998	66.149	-39.3165
122.000000	66.042	-39.6303
124.099998	65.897	-40.0677
125.000000	65.842	-40.2605
126.500000	65.753	-40.5958
128.000000	65.661	-40.9327
131.500000	65.415	-41.6032
132.000000	65.380	-41.6885
134.000000	65.249	-42.0398
136.000000	65.127	-42.3960
138.000000	65.004	-42.6948
140.000000	64.878	-42.9244
143.000000	64.689	-43.2654
145.000000	64.572	-43.4904
147.500000	64.430	-43.7280
150.000000	64.291	-43.9630
152.500000	64.165	-44.1730
155.000000	64.046	-44.3425
157.500000	63.919	-44.4890
160.000000	63.789	-44.5970
162.500000	63.671	-44.6872
165.000000	63.572	-44.7930
167.500000	63.477	-44.9203
170.000000	63.374	-45.0346
172.500000	63.272	-45.1079
175.000000	63.173	-45.1481
177.500000	63.069	-45.1658
180.000000	62.958	-45.1542
182.500000	62.842	-45.0988
185.000000	62.720	-45.0132
187.500000	62.597	-44.9337
190.000000	62.480	-44.8828
192.500000	62.375	-44.8567
195.000000	62.281	-44.8424
197.500000	62.192	-44.8276
200.000000	62.104	-44.8122
203.000000	62.009	-44.8030
206.000000	61.939	-44.7966
209.000000	61.885	-44.7715
212.000000	61.834	-44.7099
214.000000	61.797	-44.6520
218.000000	61.727	-44.5375
220.000000	61.693	-44.4890
224.000000	61.616	-44.3917
227.000000	61.551	-44.3105
230.000000	61.487	-44.2299
233.000000	61.430	-44.1735
236.000000	61.373	-44.1539
240.000000	61.288	-44.1570
243.000000	61.218	-44.1503
247.000000	61.127	-44.0680
250.000000	61.064	-43.9260
254.000000	60.992	-43.6329
258.000000	60.927	-43.2636
262.000000	60.860	-42.9266
265.000000	60.811	-42.7274
269.000000	60.758	-42.4912
272.000000	60.722	-42.2906
276.000000	60.667	-41.9854
280.000000	60.601	-41.6998
285.000000	60.516	-41.4146
290.000000	60.443	-41.1750
295.000000	60.377	-40.9154
300.000000	60.307	-40.6097
304.000000	60.244	-40.3844
307.000000	60.194	-40.2385
311.000000	60.129	-40.0538
315.000000	60.068	-39.8664
320.000000	59.998	-39.6422
325.000000	59.930	-39.4392
330.000000	59.866	-39.2028
335.000000	59.810	-38.8411
340.000000	59.760	-38.4106
345.000000	59.709	-38.0735
350.000000	59.648	-37.8120
355.000000	59.577	-37.4918
360.000000	59.503	-37.1091
365.000000	59.439	-36.7429
370.000000	59.388	-36.4050
375.000000	59.341	-36.0648
382.000000	59.256	-35.5973
387.000000	59.180	-35.2913
395.000000	59.062	-34.8135
400.000000	58.999	-34.5160
406.000000	58.931	-34.1965
412.000000	58.873	-33.8899
418.000000	58.825	-33.5362
425.000000	58.772	-33.1201
431.000000	58.718	-32.8068
437.000000	58.663	-32.4799
444.000000	58.608	-32.0578
450.000000	58.569	-31.7085
455.000000	58.538	-31.4472
462.000000	58.497	-31.1130
468.000000	58.469	-30.8127
475.000000	58.441	-30.4346
482.000000	58.410	-30.0656
487.000000	58.384	-29.8256
494.000000	58.345	-29.5276
500.000000	58.316	-29.3024
508.000000	58.289	-29.0222
515.000000	58.272	-28.7657
522.000000	58.258	-28.4879
530.000000	58.241	-28.2001
538.000000	58.226	-27.9775
545.000000	58.220	-27.7963
552.000000	58.220	-27.6134
560.000000	58.222	-27.4195
570.000000	58.223	-27.1822
580.000000	58.226	-26.9099
590.000000	58.236	-26.5697
600.000000	58.255	-26.0897
608.000000	58.269	-25.6031
615.000000	58.277	-25.1421
622.000000	58.285	-24.6905
630.000000	58.299	-24.2225
640.000000	58.329	-23.7411
650.000000	58.359	-23.3323
660.000000	58.389	-22.8930
670.000000	58.422	-22.4301
680.000000	58.449	-21.9712
690.000000	58.463	-21.4747
700.000000	58.475	-20.9701
710.000000	58.498	-20.5132
720.000000	58.530	-20.0643
730.000000	58.565	-19.5684
740.000000	58.603	-19.0275
750.000000	58.648	-18.4764
762.000000	58.701	-17.8838
775.000000	58.743	-17.3363
788.000000	58.779	-16.7798
800.000000	58.820	-16.2097
812.000000	58.873	-15.6222
825.000000	58.935	-14.9999
838.000000	58.991	-14.4066
850.000000	59.036	-13.9044
862.000000	59.083	-13.4328
875.000000	59.142	-12.9283
885.000000	59.194	-12.5152
900.000000	59.278	-11.7962
912.000000	59.343	-11.1591
925.000000	59.413	-10.4765
938.000000	59.481	-9.8674
950.000000	59.544	-9.4202
962.000000	59.612	-9.0801
975.000000	59.695	-8.7650
988.000000	59.786	-8.4590
1000.000000	59.876	-8.2131
1015.000000	59.993	-7.9957
1030.000000	60.115	-7.8568
1044.000000	60.232	-7.7703
1060.000000	60.354	-7.6963
1075.000000	60.452	-7.6337
1090.000000	60.545	-7.5629
1106.000000	60.654	-7.5019
1120.000000	60.758	-7.5084
1138.000000	60.892	-7.6084
1150.000000	60.981	-7.7035
1172.000000	61.141	-7.9078
1180.000000	61.197	-8.0021
1206.000000	61.375	-8.4999
1220.000000	61.474	-8.9242
1241.000000	61.634	-9.7060
1250.000000	61.707	-10.0531
1265.000000	61.835	-10.5919
1280.000000	61.969	-11.0481
1315.000000	62.251	-11.8037
1320.000000	62.283	-11.8761
1340.000000	62.382	-12.0351
1360.000000	62.442	-11.9463
1380.000000	62.469	-11.6257
1400.000000	62.477	-11.1318
1430.000000	62.496	-10.1588
1450.000000	62.536	-9.3956
1475.000000	62.620	-8.3708
1500.000000	62.732	-7.3493
1525.000000	62.856	-6.4165
1550.000000	62.985	-5.6181
1575.000000	63.112	-4.9674
1600.000000	63.236	-4.4882
1625.000000	63.362	-4.1525
1650.000000	63.492	-3.8955
1675.000000	63.616	-3.6898
1700.000000	63.734	-3.5231
1725.000000	63.857	-3.4627
1750.000000	63.983	-3.5768
1775.000000	64.105	-3.8401
1800.000000	64.223	-4.1708
1825.000000	64.344	-4.4911
1850.000000	64.473	-4.8117
1875.000000	64.604	-5.1894
1900.000000	64.728	-5.6321
1925.000000	64.845	-6.1089
1950.000000	64.960	-6.5572
1975.000000	65.072	-6.9296
2000.000000	65.183	-7.2230
2030.000000	65.317	-7.4728
2060.000000	65.452	-7.5753
2090.000000	65.588	-7.5215
2120.000000	65.728	-7.4276
2140.000000	65.821	-7.4440
2180.000000	65.998	-7.8856
2200.000000	66.082	-8.3475
2240.000000	66.249	-9.6854
2270.000000	66.376	-10.9657
2300.000000	66.499	-12.4181
2330.000000	66.620	-13.9533
2360.000000	66.742	-15.4499
2400.000000	66.908	-17.2147
2430.000000	67.036	-18.3494
2470.000000	67.205	-19.7735
2500.000000	67.323	-20.8735
2540.000000	67.472	-22.3800
2580.000000	67.618	-23.8346
2620.000000	67.767	-25.1659
2650.000000	67.880	-26.0841
2690.000000	68.029	-27.2638
2720.000000	68.135	-28.1581
2760.000000	68.268	-29.3847
2800.000000	68.399	-30.6592
2850.000000	68.563	-32.3726
2900.000000	68.726	-34.3445
2950.000000	68.876	-36.7273
3000.000000	69.004	-39.4578
3040.000000	69.091	-41.6978
3070.000000	69.151	-43.3214
3110.000000	69.229	-45.3760
3150.000000	69.301	-47.3366
3200.000000	69.382	-49.7357
3250.000000	69.453	-52.1109
3300.000000	69.512	-54.4723
3350.000000	69.555	-56.8973
3400.000000	69.575	-59.4896
3450.000000	69.569	-62.2376
3500.000000	69.536	-64.9486
3550.000000	69.487	-67.4460
3600.000000	69.425	-69.7888
3650.000000	69.347	-72.1760
3700.000000	69.257	-74.7294
3750.000000	69.165	-77.4532
3820.000000	69.034	-81.4517
3870.000000	68.932	-84.2798
3950.000000	68.750	-88.3650
4000.000000	68.619	-90.5718
4060.000000	68.445	-92.8320
4120.000000	68.263	-94.6347
4180.000000	68.078	-96.0823
4250.000000	67.854	-97.5339
4310.000000	67.662	-98.5835
4370.000000	67.488	-99.3351
4440.000000	67.325	-99.8296
4500.000000	67.228	-100.0752
4550.000000	67.177	-100.2547
4620.000000	67.148	-100.5492
4680.000000	67.157	-100.8254
4750.000000	67.199	-101.0763
4820.000000	67.269	-101.2341
4870.000000	67.331	-101.3772
4940.000000	67.430	-101.8272
5000.000000	67.523	-102.6056
5080.000000	67.647	-104.3928
5150.000000	67.737	-106.7481
5220.000000	67.797	-109.7722
5300.000000	67.821	-113.7916
5380.000000	67.784	-118.1443
5450.000000	67.693	-122.0771
5520.000000	67.548	-126.0225
5600.000000	67.323	-130.4775
5700.000000	66.962	-135.7895
5800.000000	66.536	-140.2736
5900.000000	66.081	-143.5598
6000.000000	65.625	-145.9834
6080.000000	65.264	-147.7884
6150.000000	64.944	-149.5041
6220.000000	64.617	-151.3557
6300.000000	64.238	-153.4494
6400.000000	63.783	-155.5511
6500.000000	63.379	-156.7405
6600.000000	63.040	-157.1803
6700.000000	62.775	-157.2579
6800.000000	62.572	-157.3585
6900.000000	62.410	-157.7068
7000.000000	62.294	-158.4270
7100.000000	62.234	-159.6094
7200.000000	62.234	-161.1426
7300.000000	62.298	-162.7655
7400.000000	62.429	-164.2784
7500.000000	62.636	-165.6033
7620.000000	62.985	-167.0741
7750.000000	63.459	-168.9478
7880.000000	63.985	-171.7648
8000.000000	64.499	-175.6398
8120.000000	65.064	179.1527
8250.000000	65.764	171.9089
8380.000000	66.553	162.6718
8500.000000	67.306	151.9771
8620.000000	67.969	138.8668
8750.000000	68.424	121.9485
8850.000000	68.493	107.5961
9000.000000	68.061	85.9076
9120.000000	67.264	70.0256
9250.000000	66.037	55.3243
9380.000000	64.565	43.5558
9500.000000	63.114	35.1356
9620.000000	61.662	28.5325
9750.000000	60.145	22.7037
9880.000000	58.719	17.7598
10000.000000	57.497	13.7947
10150.000000	56.101	9.4483
10300.000000	54.828	5.7413
10440.000000	53.734	3.0411
10600.000000	52.607	0.7814
10750.000000	51.676	-1.0164
10900.000000	50.851	-2.9591
11060.000000	50.057	-5.3892
11200.000000	49.406	-7.8409
11380.000000	48.622	-11.4780
11500.000000	48.138	-14.0961
11720.000000	47.360	-18.2759
11800.000000	47.117	-19.3881
12060.000000	46.440	-21.5109
12200.000000	46.130	-21.8735
12410.000000	45.757	-21.0349
12500.000000	45.647	-20.0984
12650.000000	45.537	-18.2368
12800.000000	45.490	-16.9028
13150.000000	45.391	-23.4791
13200.000000	45.367	-27.0341
13400.000000	45.252	-56.6375
13600.000000	45.155	-122.7299
13800.000000	45.191	142.0450
14000.000000	45.442	57.5592
14300.000000	46.175	-23.9337
14500.000000	46.891	-84.9701
14750.000000	48.073	162.1627
15000.000000	49.599	51.6232
15250.000000	51.392	-13.6067
15500.000000	53.212	-48.6084
15750.000000	54.685	-76.2969
16000.000000	55.447	-106.0349
16250.000000	55.328	-136.4587
16500.000000	54.450	-162.2261
16750.000000	53.144	179.3112
17000.000000	51.805	167.3538
17250.000000	50.782	159.6549
17500.000000	50.241	153.3740
17750.000000	50.097	144.5679
18000.000000	50.110	126.0209
18250.000000	50.006	82.0759
18500.000000	49.548	-16.2533
18750.000000	48.655	150.9149
19000.000000	47.429	172.7029
19250.000000	46.118	-24.2783
19500.000000	44.953	-109.8059
19750.000000	44.027	81.2822
